respondent;sex;condition;exp_clock;trial_clock;block;block_nr;trial_nr;sound;salience;position;orientation;event;value;responseTime;accuracy
1;m;NA;73.7327269918751;3.77467746147886;VA;2;1;microwaveoven;high;central;right;SearchResponse;right;951.982955448329;1
1;m;NA;80.8900925116614;4.13758080499247;VA;2;2;firealarm;low;peripheral;right;SearchResponse;right;1318.76304442994;1
1;m;NA;88.1142267032992;4.20459402003326;VA;2;3;growlingdog;low;peripheral;right;SearchResponse;right;1385.24371571839;1
1;m;NA;95.0707347011194;3.93716496252455;VA;2;4;microwaveoven;low;peripheral;left;SearchResponse;left;1117.91302869096;1
1;m;NA;103.179171768017;5.08873333968222;VA;2;5;cluckinghen;low;peripheral;right;SearchResponse;right;2269.66313435696;1
1;m;NA;109.685423034709;3.48679010779597;VA;2;6;growlingdog;low;central;right;SearchResponse;right;668.400989845395;1
1;m;NA;116.125239852117;3.42024188069627;VA;2;7;microwaveoven;low;central;right;SearchResponse;right;601.533552398905;1
1;m;NA;122.514958437532;3.37010335223749;VA;2;8;firealarm;high;central;right;SearchResponse;right;550.723023246974;1
1;m;NA;128.887940607965;3.35333651746623;VA;2;9;microwaveoven;high;peripheral;right;SearchResponse;right;534.604880493134;1
1;m;NA;135.227683825418;3.31997114466503;VA;2;10;firealarm;low;central;right;SearchResponse;right;501.234371913597;1
1;m;NA;141.600653748959;3.35321523342282;VA;2;11;microwaveoven;high;peripheral;left;SearchResponse;left;534.5543124713;1
1;m;NA;147.888329349225;3.27000209782273;VA;2;12;cluckinghen;high;central;left;SearchResponse;left;450.600830372423;1
1;m;NA;154.096471027937;3.18851775419898;VA;2;13;microwaveoven;high;central;left;SearchResponse;left;367.561917053536;1
1;m;NA;161.520664320793;4.40414823195897;VA;2;14;firealarm;low;central;left;SearchResponse;left;1585.54815058596;1
1;m;NA;168.427615716588;3.88732944661751;VA;2;15;growlingdog;low;central;left;SearchResponse;left;1068.79099505022;1
1;m;NA;174.967325591017;3.52015548059717;VA;2;16;microwaveoven;low;central;left;SearchResponse;left;701.499300543219;1
1;m;NA;182.391467525624;4.40437618293799;VA;2;17;cluckinghen;low;peripheral;left;SearchResponse;left;1585.58844705112;1
1;m;NA;189.448659494752;4.03746532835066;VA;2;18;microwaveoven;low;peripheral;right;SearchResponse;right;1218.83048163727;1
1;m;NA;195.93852950749;3.47021803865209;VA;2;19;cluckinghen;low;central;right;SearchResponse;right;651.32126561366;1
1;m;NA;202.411510611186;3.45330424094573;VA;2;20;growlingdog;high;central;left;SearchResponse;left;634.570628637448;1
1;m;NA;208.901342697907;3.47013547061943;VA;2;21;cluckinghen;high;peripheral;right;SearchResponse;right;651.498253457248;1
1;m;NA;215.27438728814;3.35333454213105;VA;2;22;growlingdog;high;central;right;SearchResponse;right;535.303350305185;1
1;m;NA;222.498300639912;4.2037477970589;VA;2;23;cluckinghen;low;central;left;SearchResponse;left;1385.3416913189;1
1;m;NA;228.938177902019;3.41944978106767;VA;2;24;firealarm;high;peripheral;right;SearchResponse;right;601.813256507739;1
1;m;NA;235.361276872689;3.40350625594147;VA;2;25;cluckinghen;high;peripheral;left;SearchResponse;left;584.590915124863;1
1;m;NA;241.884376356844;3.50339496694505;VA;2;26;growlingdog;high;peripheral;left;SearchResponse;left;685.187577502802;1
1;m;NA;248.25742805819;3.35332782613114;VA;2;27;firealarm;high;central;left;SearchResponse;left;534.532584017143;1
1;m;NA;254.614202011842;3.33705995511264;VA;2;28;cluckinghen;high;central;right;SearchResponse;right;517.718737013638;1
1;m;NA;260.936735529918;3.30292737134732;VA;2;29;growlingdog;high;peripheral;right;SearchResponse;right;484.833759954199;1
1;m;NA;267.293845286593;3.33742025168613;VA;2;30;firealarm;high;peripheral;left;SearchResponse;left;517.971576657146;1
1;m;NA;273.699612483615;3.38671887805685;VA;2;31;growlingdog;low;peripheral;left;SearchResponse;right;567.997512640432;0
1;m;NA;280.573120679241;3.85313009750098;VA;2;32;firealarm;low;peripheral;left;SearchResponse;left;1035.13051080517;1
1;m;NA;286.946065713884;3.34205512143672;VA;3;1;microwaveoven;high;central;right;SearchResponse;right;517.901650862768;1
1;m;NA;293.669695608551;3.70389614277519;VA;3;2;firealarm;low;peripheral;right;SearchResponse;right;884.789987001568;1
1;m;NA;300.210572496522;3.52121543255635;VA;3;3;growlingdog;low;peripheral;right;SearchResponse;right;701.342460699379;1
1;m;NA;306.982885510661;3.75370518956333;VA;3;4;microwaveoven;low;peripheral;left;SearchResponse;left;934.899675892666;1
1;m;NA;313.939835978206;3.93727162946016;VA;3;5;cluckinghen;low;peripheral;right;SearchResponse;right;1118.52972069755;1
1;m;NA;320.463078474859;3.50348938675597;VA;3;6;growlingdog;low;central;right;SearchResponse;right;683.862933889031;1
1;m;NA;326.91984425066;3.43707587616518;VA;3;7;microwaveoven;low;central;right;SearchResponse;right;618.042411515489;1
1;m;NA;333.375943161547;3.43664328288287;VA;3;8;firealarm;high;central;right;SearchResponse;right;618.558757705614;1
1;m;NA;340.366259792121;3.97060381690972;VA;3;9;microwaveoven;high;peripheral;right;SearchResponse;right;1151.83267369866;1
1;m;NA;346.840582132107;3.45464350166731;VA;3;10;firealarm;low;central;right;SearchResponse;right;635.084209498018;1
1;m;NA;353.212545042159;3.35332506080158;VA;3;11;microwaveoven;high;peripheral;left;SearchResponse;left;534.366262843832;1
1;m;NA;359.5526979391;3.32045509596355;VA;3;12;cluckinghen;high;central;left;SearchResponse;left;501.22212478891;1
1;m;NA;365.891887279227;3.31996324355714;VA;3;13;microwaveoven;high;central;left;SearchResponse;left;501.156149432063;1
1;m;NA;373.299667318119;4.38812766969204;VA;3;14;firealarm;low;central;left;SearchResponse;left;1569.03534103185;1
1;m;NA;380.323090555845;4.00417304201983;VA;3;15;growlingdog;low;central;left;SearchResponse;left;1185.25058985688;1
1;m;NA;387.063052716665;3.72037695255131;VA;3;16;microwaveoven;low;central;left;SearchResponse;left;901.569463778287;1
1;m;NA;393.670602671336;3.58785136323422;VA;3;17;cluckinghen;low;peripheral;left;SearchResponse;left;768.254145048559;1
1;m;NA;400.876885187346;4.18736377777532;VA;3;18;microwaveoven;low;peripheral;right;SearchResponse;right;1368.89169644564;1
1;m;NA;407.383416553261;3.48684660182334;VA;3;19;cluckinghen;low;central;right;SearchResponse;right;667.297580977902;1
1;m;NA;413.740710013779;3.3375640544109;VA;3;20;growlingdog;high;central;left;SearchResponse;left;517.932070652023;1
1;m;NA;420.329833872383;3.57026556460187;VA;3;21;cluckinghen;high;peripheral;right;SearchResponse;right;751.6390143428;1
1;m;NA;426.63600114896;3.28586898068897;VA;3;22;growlingdog;high;central;right;SearchResponse;right;467.998579377308;1
1;m;NA;433.79313911288;4.13748717517592;VA;3;23;cluckinghen;low;central;left;SearchResponse;left;1318.54259991087;1
1;m;NA;440.066092325374;3.25320800370537;VA;3;24;firealarm;high;peripheral;right;SearchResponse;right;434.515477856621;1
1;m;NA;446.389244510792;3.30347334733233;VA;3;25;cluckinghen;high;peripheral;left;SearchResponse;left;484.333611093462;1
1;m;NA;452.812370740576;3.40353628084995;VA;3;26;growlingdog;high;peripheral;left;SearchResponse;left;584.520593984053;1
1;m;NA;459.201996486401;3.37002275954001;VA;3;27;firealarm;high;central;left;SearchResponse;left;551.610727794468;1
1;m;NA;465.524882004829;3.30318021099083;VA;3;28;cluckinghen;high;central;right;SearchResponse;right;485.182994743809;1
1;m;NA;471.847946881549;3.3031762605533;VA;3;29;growlingdog;high;peripheral;right;SearchResponse;right;484.549314947799;1
1;m;NA;478.237761071883;3.37009584601037;VA;3;30;firealarm;high;peripheral;left;SearchResponse;left;551.287961890921;1
1;m;NA;484.911072289804;3.65365489805117;VA;3;31;growlingdog;low;peripheral;left;SearchResponse;left;834.7024214454;1
1;m;NA;491.601128218696;3.67043793038465;VA;3;32;firealarm;low;peripheral;left;SearchResponse;left;851.69641696848;1
1;m;NA;496.806221202482;2.17562489956617;VO;4;1;visual only;low;central;left;SearchResponse;left;1151.979241753;1
1;m;NA;502.145361555042;2.31939711933956;VO;4;2;visual only;low;peripheral;left;SearchResponse;left;1302.27709910832;1
1;m;NA;506.966393639101;1.80183798726648;VO;4;3;visual only;low;central;right;SearchResponse;right;785.151745425537;1
1;m;NA;511.638277497143;1.65228047664277;VO;4;4;visual only;high;peripheral;right;SearchResponse;right;634.754332713783;1
1;m;NA;516.375785531709;1.71829299954697;VO;4;5;visual only;low;central;left;SearchResponse;left;701.629275921732;1
1;m;NA;521.330865774769;1.93541562720202;VO;4;6;visual only;low;central;right;SearchResponse;right;918.847508728504;1
1;m;NA;525.952060782816;1.60120723117143;VO;4;7;visual only;high;central;left;SearchResponse;left;583.835161058232;1
1;m;NA;530.690176027827;1.71838583890349;VO;4;8;visual only;high;peripheral;left;SearchResponse;left;701.923597371206;1
1;m;NA;535.411617673002;1.70172014040872;VO;4;9;visual only;high;peripheral;left;SearchResponse;left;684.809107799083;1
1;m;NA;540.11623836006;1.68499597231857;VO;4;10;visual only;high;peripheral;left;SearchResponse;left;668.246520217508;1
1;m;NA;544.837664202787;1.70174937485717;VO;4;11;visual only;high;peripheral;right;SearchResponse;right;684.761700453237;1
1;m;NA;549.542550766608;1.68516505905427;VO;4;12;visual only;high;central;right;SearchResponse;right;667.877927422523;1
1;m;NA;554.181122980081;1.61893525207415;VO;4;13;visual only;high;central;left;SearchResponse;left;601.81523184292;1
1;m;NA;558.68496673787;1.48481084615923;VO;4;14;visual only;high;central;right;SearchResponse;right;467.866233550012;1
1;m;NA;563.773306990508;2.06883050128818;VO;4;15;visual only;low;peripheral;right;SearchResponse;right;1051.90880224109;1
1;m;NA;568.327953771455;1.53494621440768;VO;4;16;visual only;high;central;left;SearchResponse;left;517.886638408527;1
1;m;NA;573.216130626621;1.86854858486913;VO;4;17;visual only;low;central;right;SearchResponse;right;851.022835820913;1
1;m;NA;577.820681663929;1.58501244639046;VO;4;18;visual only;high;peripheral;left;SearchResponse;left;568.05993267335;1
1;m;NA;582.542140692007;1.7017300168518;VO;4;19;visual only;low;central;right;SearchResponse;right;684.604860842228;1
1;m;NA;587.380793340271;1.8190670448821;VO;4;20;visual only;low;central;left;SearchResponse;left;801.576060941443;1
1;m;NA;592.035002115648;1.63371689920314;VO;4;21;visual only;high;peripheral;right;SearchResponse;right;602.186985313892;1
1;m;NA;597.191065905383;2.13644342101179;VO;4;22;visual only;low;central;left;SearchResponse;left;1118.64231340587;1
1;m;NA;601.694528823253;1.48475119192153;VO;4;23;visual only;high;central;right;SearchResponse;right;467.883221339434;1
1;m;NA;606.716639269143;2.00236563244835;VO;4;24;visual only;low;peripheral;left;SearchResponse;left;985.74378550984;1
1;m;NA;612.221785546746;2.48586487211287;VO;4;25;visual only;low;peripheral;left;SearchResponse;left;1468.82109879516;1
1;m;NA;617.110192723107;1.86870305426419;VO;4;26;visual only;low;peripheral;right;SearchResponse;right;851.929503493011;1
1;m;NA;622.11502156849;1.98466012999415;VO;4;27;visual only;low;peripheral;right;SearchResponse;right;968.032752396539;1
1;m;NA;626.70304201846;1.56839534034953;VO;4;28;visual only;high;central;right;SearchResponse;right;551.40055459924;1
1;m;NA;632.008289195132;2.28559678280726;VO;4;29;visual only;high;central;left;SearchResponse;left;1268.70431844145;1
1;m;NA;636.829902020749;1.80181309836917;VO;4;30;visual only;low;peripheral;left;SearchResponse;left;784.894164884463;1
1;m;NA;641.484413018683;1.63373428187333;VO;4;31;visual only;high;peripheral;right;SearchResponse;right;602.269158232957;1
1;m;NA;646.239664481487;1.73520837770775;VO;4;32;visual only;low;peripheral;right;SearchResponse;right;718.123517930508;1
10;m;NA;53.4567431793548;4.82656461978331;VA;2;1;cluckinghen;high;central;left;SearchResponse;left;2002.67574889585;1
10;m;NA;60.4139232963789;3.93734449404292;VA;2;2;microwaveoven;high;central;left;SearchResponse;left;1118.66924446076;1
10;m;NA;67.504282067297;4.070668135304;VA;2;3;cluckinghen;high;central;right;SearchResponse;right;1252.04700906761;1
10;m;NA;74.1109023431782;3.58579265442677;VA;2;4;growlingdog;high;central;left;SearchResponse;left;768.141403328627;1
10;m;NA;80.7675922682974;3.63706684508361;VA;2;5;cluckinghen;high;peripheral;left;SearchResponse;left;815.626563038677;1
10;m;NA;87.3407563997898;3.55349403899163;VA;2;6;microwaveoven;high;central;right;SearchResponse;right;735.46747979708;1
10;m;NA;93.7304430925287;3.37006361270323;VA;2;7;firealarm;high;central;left;SearchResponse;left;550.895722117275;1
10;m;NA;100.204452022444;3.45429538097233;VA;2;8;microwaveoven;high;peripheral;left;SearchResponse;left;634.614305803552;1
10;m;NA;106.776810624171;3.5530883113388;VA;2;9;firealarm;high;central;right;SearchResponse;right;734.691184479743;1
10;m;NA;113.01639266545;3.21981871430762;VA;2;10;growlingdog;high;central;right;SearchResponse;left;401.074329158291;0
10;m;NA;119.489477942465;3.45341716008261;VA;2;11;microwaveoven;high;peripheral;right;SearchResponse;right;634.67870070599;1
10;m;NA;126.046032519778;3.53640685603023;VA;2;12;firealarm;high;peripheral;left;SearchResponse;left;717.940593836829;1
10;m;NA;132.550528710242;3.48653513239697;VA;2;13;growlingdog;high;peripheral;left;SearchResponse;left;667.75440168567;1
10;m;NA;139.693790903548;4.12148089427501;VA;2;14;firealarm;high;peripheral;right;SearchResponse;right;1301.95310316049;1
10;m;NA;146.616970876697;3.90418938617222;VA;2;15;cluckinghen;high;peripheral;right;SearchResponse;right;1085.01952001825;1
10;m;NA;175.378360291012;4.05385196418501;VA;2;18;firealarm;low;central;left;SearchResponse;left;1234.38659240492;1
10;m;NA;181.90175462421;3.50337421684526;VA;2;19;growlingdog;high;peripheral;right;SearchResponse;right;684.823411749676;1
10;m;NA;189.509430503473;4.58785526873544;VA;2;20;microwaveoven;low;central;right;SearchResponse;right;1769.22545116395;1
10;m;NA;196.98315538466;4.4541097022593;VA;2;21;growlingdog;low;central;left;SearchResponse;left;1634.69094759785;1
10;m;NA;205.492074679118;5.48879409162328;VA;2;22;cluckinghen;low;central;right;SearchResponse;left;2669.961608015;0
10;m;NA;212.248688989552;3.73685374902561;VA;2;23;growlingdog;low;central;right;SearchResponse;right;918.293462600559;1
10;m;NA;219.522842037957;4.25435772142373;VA;2;24;firealarm;low;central;right;SearchResponse;right;1435.59792893939;1
10;m;NA;226.613313006004;4.07085934490897;VA;2;25;microwaveoven;low;peripheral;left;SearchResponse;left;1251.98379927315;1
10;m;NA;233.319789321627;3.68685402581468;VA;2;26;cluckinghen;low;peripheral;left;SearchResponse;left;868.315072264522;1
10;m;NA;240.360193010885;4.02070278231986;VA;2;27;microwaveoven;low;peripheral;right;SearchResponse;right;1201.84936001897;1
10;m;NA;247.16703815572;3.78714226232842;VA;2;28;cluckinghen;low;peripheral;right;SearchResponse;right;968.356395605952;1
10;m;NA;254.674526538933;4.48782579693943;VA;2;29;firealarm;low;peripheral;left;SearchResponse;left;1669.71785505302;1
10;m;NA;261.497989929048;3.80367635958828;VA;2;30;growlingdog;low;peripheral;left;SearchResponse;left;984.417999861762;1
10;m;NA;270.306759811472;5.78906265413389;VA;2;31;firealarm;low;peripheral;right;SearchResponse;right;2970.42967635207;1
10;m;NA;277.463900501374;4.13738170894794;VA;2;32;growlingdog;low;peripheral;right;SearchResponse;right;1318.83880496025;1
10;m;NA;284.053637051024;3.56028316402808;VA;3;1;cluckinghen;high;central;left;SearchResponse;left;734.882789198309;1
10;m;NA;290.543439338682;3.46994809689932;VA;3;2;microwaveoven;high;central;left;SearchResponse;left;651.155119063333;1
10;m;NA;297.13335287571;3.56885164417326;VA;3;3;cluckinghen;high;central;right;SearchResponse;right;751.293627778068;1
10;m;NA;304.040425812593;3.88710891921073;VA;3;4;growlingdog;high;central;left;SearchResponse;left;1067.96907773241;1
10;m;NA;310.546991728013;3.48685631714761;VA;3;5;cluckinghen;high;peripheral;left;SearchResponse;left;667.123093968257;1
10;m;NA;317.103479540208;3.53681969502941;VA;3;6;microwaveoven;high;central;right;SearchResponse;right;718.172494787723;1
10;m;NA;323.660066512413;3.53599559725262;VA;3;7;firealarm;high;central;left;SearchResponse;left;718.104148982093;1
10;m;NA;330.184117832454;3.50427653640509;VA;3;8;microwaveoven;high;peripheral;left;SearchResponse;left;684.873189311475;1
10;m;NA;336.673063232563;3.47005555336364;VA;3;9;firealarm;high;central;right;SearchResponse;right;651.36371133849;1
10;m;NA;343.246257783612;3.55272920057178;VA;3;10;growlingdog;high;central;right;SearchResponse;right;734.643777366728;1
10;m;NA;350.353079540655;4.0870564552024;VA;3;11;microwaveoven;high;peripheral;right;SearchResponse;right;1267.92016928084;1
10;m;NA;356.926581449341;3.5534857425373;VA;3;12;firealarm;high;peripheral;left;SearchResponse;left;734.635481145233;1
10;m;NA;363.39986702241;3.45353014743887;VA;3;13;growlingdog;high;peripheral;left;SearchResponse;left;636.104476172477;1
10;m;NA;369.972799647832;3.55343754519708;VA;3;14;firealarm;high;peripheral;right;SearchResponse;right;734.650098253042;1
10;m;NA;376.529254669789;3.53590789367445;VA;3;15;cluckinghen;high;peripheral;right;SearchResponse;right;717.737532453611;1
10;m;NA;384.070139148273;4.52092638681643;VA;3;16;microwaveoven;low;central;left;SearchResponse;left;1701.88689092174;1
10;m;NA;391.227512924233;4.13749588141218;VA;3;17;cluckinghen;low;central;left;SearchResponse;left;1318.56384221464;1
10;m;NA;398.217748199124;3.97056004661135;VA;3;18;firealarm;low;central;left;SearchResponse;left;1152.13289530948;1
10;m;NA;404.77411946794;3.53664744808339;VA;3;19;growlingdog;high;peripheral;right;SearchResponse;right;717.72805089131;1
10;m;NA;411.681783416308;3.88769044913352;VA;3;20;microwaveoven;low;central;right;SearchResponse;right;1068.59445944428;1
10;m;NA;418.204432269558;3.50345599465072;VA;3;21;growlingdog;low;central;left;SearchResponse;left;685.375706991181;1
10;m;NA;425.327854099218;4.10364981135353;VA;3;22;cluckinghen;low;central;right;SearchResponse;right;1284.53683434054;1
10;m;NA;431.901951759821;3.55403685290366;VA;3;23;growlingdog;low;central;right;SearchResponse;right;734.483382664621;1
10;m;NA;438.758363245986;3.8371897879988;VA;3;24;firealarm;low;central;right;SearchResponse;right;1018.57893355191;1
10;m;NA;446.065330069512;4.28736191638745;VA;3;25;microwaveoven;low;peripheral;left;SearchResponse;left;1468.43975340016;1
10;m;NA;453.155993432505;4.07026991364546;VA;3;26;cluckinghen;low;peripheral;left;SearchResponse;left;1253.68651258759;1
10;m;NA;459.996708350722;3.82102941861376;VA;3;27;microwaveoven;low;peripheral;right;SearchResponse;right;1001.78449111991;1
10;m;NA;466.952917012619;3.93702567974105;VA;3;28;cluckinghen;low;peripheral;right;SearchResponse;right;1118.27418347821;1
10;m;NA;474.076684125699;4.10381889762357;VA;3;29;firealarm;low;peripheral;left;SearchResponse;left;1286.50976950303;1
10;m;NA;481.46737585403;4.37083674711175;VA;3;30;growlingdog;low;peripheral;left;SearchResponse;left;1551.96357215755;1
10;m;NA;499.368556849658;4.03652932494879;VA;3;32;growlingdog;low;peripheral;right;SearchResponse;right;1219.02543166652;1
10;m;NA;504.039815048221;1.64262733003125;VO;4;1;visual only;high;central;left;SearchResponse;left;617.66065354459;1
10;m;NA;508.678079323377;1.61829354148358;VO;4;2;visual only;high;central;left;SearchResponse;left;601.385716348886;1
10;m;NA;514.551079030382;2.85332447872497;VO;4;3;visual only;low;central;left;SearchResponse;left;1836.02554304525;1
10;m;NA;519.305381048238;1.73507241858169;VO;4;4;visual only;high;peripheral;left;SearchResponse;left;717.187607428059;1
10;m;NA;524.2101586801;1.88509252737276;VO;4;5;visual only;high;peripheral;right;SearchResponse;right;867.466876283288;1
10;m;NA;530.015896073543;2.78594641247764;VO;4;6;visual only;low;central;left;SearchResponse;left;1768.92006886192;1
10;m;NA;534.687469925964;1.6516623776406;VO;4;7;visual only;high;peripheral;left;SearchResponse;left;634.48433065787;1
10;m;NA;539.759097664617;2.05205878196284;VO;4;8;visual only;low;peripheral;left;SearchResponse;left;1035.02848767675;1
10;m;NA;544.413822950795;1.63505874946713;VO;4;9;visual only;high;central;right;SearchResponse;right;618.444849969819;1
10;m;NA;549.101683592424;1.66875864681788;VO;4;10;visual only;high;central;left;SearchResponse;left;636.463586939499;1
10;m;NA;555.157814268954;3.0357700176537;VO;4;11;visual only;low;central;left;SearchResponse;left;2019.77320341393;1
10;m;NA;560.029325385578;1.85182680212893;VO;4;12;visual only;low;central;right;SearchResponse;right;834.862483199686;1
10;m;NA;565.051575622056;2.00281678582542;VO;4;13;visual only;low;central;right;SearchResponse;right;985.004665562883;1
10;m;NA;572.491868457291;4.42111854441464;VO;4;14;visual only;low;peripheral;right;SearchResponse;right;3404.86454544589;1
10;m;NA;577.195258160587;1.68377373437397;VO;4;15;visual only;high;peripheral;right;SearchResponse;right;665.817021857947;1
10;m;NA;581.817734213779;1.60153346927837;VO;4;16;visual only;high;central;left;SearchResponse;left;583.946929080412;1
10;m;NA;587.37328059529;2.53586206678301;VO;4;17;visual only;low;peripheral;right;SearchResponse;right;1519.14584613405;1
10;m;NA;592.395066239871;2.0020483918488;VO;4;18;visual only;low;central;right;SearchResponse;right;984.957653330639;1
10;m;NA;597.299925254425;1.88518773717806;VO;4;19;visual only;low;peripheral;left;SearchResponse;left;869.010774884373;1
10;m;NA;602.40503718704;2.08541181567125;VO;4;20;visual only;low;peripheral;left;SearchResponse;left;1068.38270672597;1
10;m;NA;606.942689275602;1.51802426786162;VO;4;21;visual only;high;central;right;SearchResponse;right;500.912591116503;1
10;m;NA;611.647688852856;1.68501936201937;VO;4;22;visual only;high;peripheral;right;SearchResponse;right;668.21148712188;1
10;m;NA;616.969331011409;2.30212772008963;VO;4;23;visual only;low;peripheral;right;SearchResponse;right;1285.49209213816;1
10;m;NA;621.507336284732;1.51819137879647;VO;4;24;visual only;high;central;right;SearchResponse;right;501.237331423908;1
10;m;NA;626.695935295196;2.16885188128799;VO;4;25;visual only;low;central;left;SearchResponse;left;1151.94010548294;1
10;m;NA;631.367166629527;1.65156203205697;VO;4;26;visual only;high;peripheral;right;SearchResponse;right;634.692922933027;1
10;m;NA;637.673576812027;3.28667846042663;VO;4;27;visual only;low;peripheral;left;SearchResponse;left;2270.09577071294;1
10;m;NA;642.244729292113;1.55155586916953;VO;4;28;visual only;high;peripheral;left;SearchResponse;left;534.822660963982;1
10;m;NA;647.349874804961;2.08538337145001;VO;4;29;visual only;low;peripheral;right;SearchResponse;right;1068.42181785032;1
10;m;NA;652.288214853033;1.91868615313433;VO;4;30;visual only;low;central;right;SearchResponse;right;901.618723291904;1
10;m;NA;657.092946025776;1.78514759871177;VO;4;31;visual only;high;peripheral;left;SearchResponse;left;767.904366832227;1
10;m;NA;661.714220303344;1.60060112504289;VO;4;32;visual only;high;central;right;SearchResponse;right;567.849374376237;1
11;m;NA;59.2347264137352;4.25981718907133;VA;2;1;cluckinghen;high;central;right;SearchResponse;right;1436.26920937095;1
11;m;NA;66.1080727340595;3.85380260890815;VA;2;2;firealarm;high;peripheral;left;SearchResponse;left;1034.22816167586;1
11;m;NA;74.0827137116867;4.95492067353916;VA;2;3;growlingdog;low;peripheral;left;SearchResponse;left;2136.31649830495;1
11;m;NA;81.5401507319184;4.43775622232351;VA;2;4;cluckinghen;low;central;left;SearchResponse;left;1619.54592377879;1
11;m;NA;88.5973616187111;4.03745818763855;VA;2;5;growlingdog;high;central;right;SearchResponse;right;1218.59327153652;1
11;m;NA;97.1391076105065;5.52209640378715;VA;2;6;cluckinghen;low;peripheral;right;SearchResponse;right;2703.46496926504;1
11;m;NA;104.4297577994;4.27084968725103;VA;2;7;growlingdog;low;peripheral;right;SearchResponse;right;1452.49795654672;1
11;m;NA;111.01944060027;3.56981750906562;VA;2;8;firealarm;high;peripheral;right;SearchResponse;right;751.500148733612;1
11;m;NA;117.592894653993;3.55333276180318;VA;2;9;growlingdog;high;peripheral;right;SearchResponse;right;734.813129820395;1
11;m;NA;125.200475338468;4.58786156558199;VA;2;10;microwaveoven;low;peripheral;right;SearchResponse;right;1769.09343962325;1
11;m;NA;132.107489227667;3.88706918995013;VA;2;11;firealarm;low;central;left;SearchResponse;left;1067.7238786011;1
11;m;NA;138.979173917702;3.85377337431419;VA;2;12;microwaveoven;high;central;right;SearchResponse;right;1034.05630975612;1
11;m;NA;145.871164393553;3.87053031922551;VA;2;13;growlingdog;high;peripheral;left;SearchResponse;left;1051.80130442022;1
11;m;NA;152.561234394554;3.67031414137455;VA;2;14;microwaveoven;low;central;left;SearchResponse;left;851.564583339496;1
11;m;NA;159.434902295267;3.85407006580499;VA;2;15;growlingdog;low;central;left;SearchResponse;left;1034.96692740009;1
11;m;NA;166.658654679952;4.20404748801957;VA;2;16;cluckinghen;low;peripheral;left;SearchResponse;left;1385.24420157773;1
11;m;NA;173.465370257938;3.78692416273407;VA;2;17;firealarm;high;central;left;SearchResponse;left;968.055296019884;1
11;m;NA;179.922059821052;3.43646397488192;VA;2;18;growlingdog;high;central;left;SearchResponse;left;618.020984897157;1
11;m;NA;186.795631721732;3.85401317689684;VA;2;19;cluckinghen;high;peripheral;right;SearchResponse;right;1035.08110027178;1
11;m;NA;193.719074259396;3.90380164101953;VA;2;20;growlingdog;low;central;right;SearchResponse;right;1085.15242871363;1
11;m;NA;200.625994518923;3.88720114063472;VA;2;21;cluckinghen;low;central;right;SearchResponse;right;1068.96081735613;1
11;m;NA;207.416940806695;3.77114341576817;VA;2;22;microwaveoven;high;central;left;SearchResponse;left;951.618746330496;1
11;m;NA;214.105950066558;3.67003167211078;VA;2;23;cluckinghen;high;peripheral;left;SearchResponse;left;850.98897817079;1
11;m;NA;220.979708831495;3.85364339896478;VA;2;24;firealarm;high;central;right;SearchResponse;right;1035.13798917993;1
11;m;NA;227.602956090064;3.60354591746;VA;2;25;cluckinghen;high;central;left;SearchResponse;left;784.972952096723;1
11;m;NA;236.01133827609;5.38866069674259;VA;2;26;microwaveoven;low;peripheral;left;SearchResponse;left;2570.04624989349;1
11;m;NA;243.285334236192;4.25422587821959;VA;2;27;firealarm;low;peripheral;left;SearchResponse;left;1435.44353003381;1
11;m;NA;250.842758258863;4.53764248400694;VA;2;28;microwaveoven;low;central;right;SearchResponse;right;1719.35949407634;1
11;m;NA;258.20022605441;4.33766097290209;VA;2;29;firealarm;low;peripheral;right;SearchResponse;right;1518.90153833665;1
11;m;NA;266.391913241241;5.17201745067723;VA;2;30;microwaveoven;high;peripheral;left;SearchResponse;left;2353.2050778158;1
11;m;NA;273.698988127988;4.28755527408794;VA;2;31;firealarm;low;central;right;SearchResponse;right;1468.31228377414;1
11;m;NA;280.43903740801;3.72024561787839;VA;2;32;microwaveoven;high;peripheral;right;SearchResponse;right;901.287467160728;1
11;m;NA;286.895558279735;3.42648589689634;VA;3;1;cluckinghen;high;central;right;SearchResponse;right;600.961422605906;1
11;m;NA;293.452166104573;3.53696613805369;VA;3;2;firealarm;high;peripheral;left;SearchResponse;left;717.654011910781;1
11;m;NA;300.859442512388;4.38754504197277;VA;3;3;growlingdog;low;peripheral;left;SearchResponse;left;1568.65484191803;1
11;m;NA;307.699768375227;3.8204558303114;VA;3;4;cluckinghen;low;central;left;SearchResponse;left;1001.8939266738;1
11;m;NA;314.339766257675;3.62031194876181;VA;3;5;growlingdog;high;central;right;SearchResponse;right;801.888711866923;1
11;m;NA;321.546970685216;4.18749637037399;VA;3;6;cluckinghen;low;peripheral;right;SearchResponse;right;1368.56863941648;1
11;m;NA;328.83761099758;4.27090973663144;VA;3;7;growlingdog;low;peripheral;right;SearchResponse;right;1454.31800663937;1
11;m;NA;335.494216096471;3.63688005405129;VA;3;8;firealarm;high;peripheral;right;SearchResponse;right;818.19963187445;1
11;m;NA;342.084562206262;3.57057523776894;VA;3;9;growlingdog;high;peripheral;right;SearchResponse;right;748.643061175244;1
11;m;NA;349.775262330979;4.67127414172865;VA;3;10;microwaveoven;low;peripheral;right;SearchResponse;right;1852.541966422;1
11;m;NA;356.681933701504;3.88704311585752;VA;3;11;firealarm;low;central;left;SearchResponse;left;1068.11815037508;1
11;m;NA;363.355630757782;3.65379897435196;VA;3;12;microwaveoven;high;central;right;SearchResponse;right;835.521910339594;1
11;m;NA;369.911948212131;3.53679863183061;VA;3;13;growlingdog;high;peripheral;left;SearchResponse;left;718.343789951177;1
11;m;NA;376.818915879092;3.88707709117443;VA;3;14;microwaveoven;low;central;left;SearchResponse;left;1067.48605135363;1
11;m;NA;383.927398292319;4.08874749185634;VA;3;15;growlingdog;low;central;left;SearchResponse;left;1268.56622955529;1
11;m;NA;391.783664902177;4.83795509647462;VA;3;16;cluckinghen;low;peripheral;left;SearchResponse;left;2019.52672377229;1
11;m;NA;398.340452480188;3.53680969355628;VA;3;17;firealarm;high;central;left;SearchResponse;left;717.251443857094;1
11;m;NA;404.98037688114;3.6202605907456;VA;3;18;growlingdog;high;central;left;SearchResponse;left;801.530390745029;1
11;m;NA;411.620315899374;3.62020686230971;VA;3;19;cluckinghen;high;peripheral;right;SearchResponse;right;801.528810494347;1
11;m;NA;418.626862469886;3.98681283427868;VA;3;20;growlingdog;low;central;right;SearchResponse;right;1167.51690569799;1
11;m;NA;425.36750276247;3.72039850681904;VA;3;21;cluckinghen;low;central;right;SearchResponse;right;901.569541369099;1
11;m;NA;431.757267657202;3.3700070597406;VA;3;22;microwaveoven;high;central;left;SearchResponse;left;551.322686951607;1
11;m;NA;438.430323923094;3.65334188775159;VA;3;23;cluckinghen;high;peripheral;left;SearchResponse;left;834.894156985683;1
11;m;NA;445.053930292925;3.60371539901826;VA;3;24;firealarm;high;central;right;SearchResponse;right;784.884063177742;1
11;m;NA;451.510250473191;3.43667691326118;VA;3;25;cluckinghen;high;central;left;SearchResponse;left;617.650811909698;1
11;m;NA;458.550586686644;4.02061077355756;VA;3;26;microwaveoven;low;peripheral;left;SearchResponse;left;1202.11445022142;1
11;m;NA;466.225071891386;4.65473803645;VA;3;27;firealarm;low;peripheral;left;SearchResponse;left;1836.04339201702;1
11;m;NA;473.615731996339;4.37047520809574;VA;3;28;microwaveoven;low;central;right;SearchResponse;right;1552.2222428699;1
11;m;NA;480.806369898812;4.1708591292263;VA;3;29;firealarm;low;peripheral;right;SearchResponse;right;1352.54295408959;1
11;m;NA;487.362842217408;3.53650549589656;VA;3;30;microwaveoven;high;peripheral;left;SearchResponse;left;718.202752876095;1
11;m;NA;494.620065035095;4.23750804446172;VA;3;31;firealarm;low;central;right;SearchResponse;right;1419.42258545896;1
11;m;NA;501.209965515038;3.57019716352806;VA;3;32;microwaveoven;high;peripheral;right;SearchResponse;right;751.480790728237;1
11;m;NA;506.982371548598;2.74272582429694;VO;4;1;visual only;low;peripheral;right;SearchResponse;right;1719.03672852204;1
11;m;NA;511.737283846829;1.73513392006862;VO;4;2;visual only;high;peripheral;left;SearchResponse;left;717.970061406959;1
11;m;NA;516.792222337681;2.03525690280367;VO;4;3;visual only;low;peripheral;left;SearchResponse;left;1018.69906912907;1
11;m;NA;521.563753704191;1.75184385257307;VO;4;4;visual only;high;peripheral;left;SearchResponse;left;734.870808839332;1
11;m;NA;526.601105620182;2.01767348847352;VO;4;5;visual only;low;peripheral;left;SearchResponse;left;1000.19713587244;1
11;m;NA;531.373564592039;1.75175654390478;VO;4;6;visual only;high;central;right;SearchResponse;right;734.875549591379;1
11;m;NA;536.729065769498;2.3358527746459;VO;4;7;visual only;low;peripheral;left;SearchResponse;left;1318.59094067477;1
11;m;NA;541.333572082396;1.58494837925537;VO;4;8;visual only;high;central;right;SearchResponse;right;568.463236937532;1
11;m;NA;546.338453862118;1.98529658676125;VO;4;9;visual only;low;central;right;SearchResponse;right;967.842752754223;1
11;m;NA;550.943069607136;1.58444625558332;VO;4;10;visual only;high;central;left;SearchResponse;left;567.984816996614;1
11;m;NA;555.564444667427;1.60164804014494;VO;4;11;visual only;high;peripheral;left;SearchResponse;left;584.624428505776;1
11;m;NA;560.502639605984;1.91849873322644;VO;4;12;visual only;low;central;right;SearchResponse;right;902.707319590263;1
11;m;NA;565.274231021933;1.75188730939408;VO;4;13;visual only;high;peripheral;right;SearchResponse;right;734.584784047911;1
11;m;NA;570.112073130702;1.81826758253737;VO;4;14;visual only;low;central;right;SearchResponse;right;801.210390607594;1
11;m;NA;576.068569706113;2.93659849345568;VO;4;15;visual only;low;central;left;SearchResponse;left;1919.45833855425;1
11;m;NA;581.039768904593;1.95180403033737;VO;4;16;visual only;low;peripheral;right;SearchResponse;right;934.627529728459;1
11;m;NA;585.811324369919;1.75177432168857;VO;4;17;visual only;high;peripheral;right;SearchResponse;right;735.004734800896;1
11;m;NA;590.699390300986;1.86840251588728;VO;4;18;visual only;low;peripheral;right;SearchResponse;right;851.252484455472;1
11;m;NA;595.287182730739;1.5678809157107;VO;4;19;visual only;high;central;left;SearchResponse;left;550.943427544553;1
11;m;NA;599.94218624878;1.63491936193896;VO;4;20;visual only;low;central;left;SearchResponse;left;619.247256981907;1
11;m;NA;605.347565964476;2.38575580672477;VO;4;21;visual only;low;central;left;SearchResponse;left;1368.72626910917;1
11;m;NA;610.019001686509;1.65163205991848;VO;4;22;visual only;high;central;right;SearchResponse;right;634.484793845331;1
11;m;NA;614.723602458718;1.68507088793558;VO;4;23;visual only;low;central;right;SearchResponse;right;668.254288670141;1
11;m;NA;619.294914486876;1.55160120557412;VO;4;24;visual only;high;central;left;SearchResponse;left;534.683075413341;1
11;m;NA;624.550040316069;2.2353624633397;VO;4;25;visual only;low;peripheral;right;SearchResponse;right;1219.4509509136;1
11;m;NA;629.338166652131;1.76843684678897;VO;4;26;visual only;high;peripheral;left;SearchResponse;left;751.513975905254;1
11;m;NA;634.276324059785;1.91835493070539;VO;4;27;visual only;low;peripheral;left;SearchResponse;left;901.422183262184;1
11;m;NA;638.914691126789;1.61840063938871;VO;4;28;visual only;high;peripheral;right;SearchResponse;right;601.215842441889;1
11;m;NA;643.936296271131;2.002147556399;VO;4;29;visual only;low;central;left;SearchResponse;left;985.167006467236;1
11;m;NA;648.70716669914;1.75080167932902;VO;4;30;visual only;high;peripheral;right;SearchResponse;right;734.019055438694;1
11;m;NA;653.362199056661;1.6343133370101;VO;4;31;visual only;high;central;right;SearchResponse;right;617.832145304419;1
11;m;NA;658.066914791882;1.68494130761246;VO;4;32;visual only;high;central;left;SearchResponse;left;668.00777008757;1
12;f;NA;87.4527215242852;4.77604200621136;VA;2;1;firealarm;high;peripheral;right;SearchResponse;right;1953.44666088931;1
12;f;NA;93.9424323269632;3.47010939661413;VA;2;2;cluckinghen;high;peripheral;left;SearchResponse;left;651.335092959926;1
12;f;NA;101.433300266741;4.47053092787974;VA;2;3;firealarm;high;peripheral;left;SearchResponse;left;1652.54042786546;1
12;f;NA;107.940001904266;3.48700107098557;VA;2;4;microwaveoven;high;central;right;SearchResponse;right;667.915853438899;1
12;f;NA;115.180440312717;4.22089744685218;VA;2;5;growlingdog;high;peripheral;right;SearchResponse;right;1401.9536615815;1
12;f;NA;121.851903824601;3.65185183426365;VA;2;6;microwaveoven;high;central;left;SearchResponse;left;834.30538396351;1
12;f;NA;129.62821644824;4.7568704278674;VA;2;7;firealarm;low;peripheral;right;SearchResponse;left;1937.67459271476;0
12;f;NA;138.520467974944;5.87256952794269;VA;2;8;cluckinghen;low;peripheral;right;SearchResponse;right;3053.78060694784;1
12;f;NA;146.211558571784;4.67141965986229;VA;2;9;microwaveoven;low;central;left;SearchResponse;left;1852.53276349977;1
12;f;NA;152.868179201847;3.63697695243172;VA;2;10;cluckinghen;high;central;right;SearchResponse;right;818.224772345275;1
12;f;NA;159.574881866574;3.68693375238217;VA;2;11;growlingdog;high;central;left;SearchResponse;left;868.321424350142;1
12;f;NA;166.24808009644;3.65352729288861;VA;2;12;cluckinghen;high;central;left;SearchResponse;left;834.542421391234;1
12;f;NA;172.988302208483;3.72040421166457;VA;2;13;growlingdog;high;peripheral;left;SearchResponse;left;901.676920475438;1
12;f;NA;179.945224231342;3.9368520732969;VA;2;14;microwaveoven;low;central;right;SearchResponse;right;1118.52260958403;1
12;f;NA;186.75219052122;3.78725900733843;VA;2;15;firealarm;low;central;left;SearchResponse;left;968.596901046112;1
12;f;NA;193.475447477074;3.70364685868844;VA;2;16;microwaveoven;high;peripheral;left;SearchResponse;left;885.109592229128;1
12;f;NA;199.998643751489;3.50346252252348;VA;2;17;firealarm;high;central;left;SearchResponse;left;683.883872348815;1
12;f;NA;208.673935811035;5.65558833256364;VA;2;18;microwaveoven;low;peripheral;left;SearchResponse;left;2837.44612825103;1
12;f;NA;215.981437212555;4.28781426697969;VA;2;19;cluckinghen;low;central;left;SearchResponse;left;1468.75235810876;1
12;f;NA;223.572370061185;4.57123741763644;VA;2;20;growlingdog;low;peripheral;right;SearchResponse;right;1752.54765735008;1
12;f;NA;231.146693704883;4.55488342302851;VA;2;21;microwaveoven;low;peripheral;right;SearchResponse;left;1736.31810722873;0
12;f;NA;238.570686306106;4.4044725780841;VA;2;22;cluckinghen;low;peripheral;left;SearchResponse;left;1584.94607592002;1
12;f;NA;245.394213603111;3.80320292711258;VA;2;23;microwaveoven;high;peripheral;right;SearchResponse;right;986.898947507143;1
12;f;NA;252.217582480051;3.80387255758978;VA;2;24;cluckinghen;high;peripheral;right;SearchResponse;right;985.214402200654;1
12;f;NA;269.835174915846;3.75365027599037;VA;2;26;firealarm;high;central;right;SearchResponse;right;935.307775158435;1
12;f;NA;277.459795508068;4.60483745764941;VA;2;27;growlingdog;low;central;right;SearchResponse;right;1785.65742494538;1
12;f;NA;284.149662992219;3.67042252304964;VA;2;28;firealarm;low;central;right;SearchResponse;right;851.544712902978;1
12;f;NA;291.623690615874;4.45443688426167;VA;2;29;cluckinghen;low;central;right;SearchResponse;right;1635.78544487245;1
12;f;NA;298.230388026219;3.58697551046498;VA;2;30;growlingdog;high;central;right;SearchResponse;right;768.14155257307;1
12;f;NA;305.371149477083;4.1211335756816;VA;2;31;firealarm;low;peripheral;left;SearchResponse;left;1302.09299991839;1
12;f;NA;313.528973269043;5.13795295357704;VA;2;32;growlingdog;low;peripheral;left;SearchResponse;left;2320.00353978947;1
12;f;NA;320.085526224924;3.52642590785399;VA;3;1;firealarm;high;peripheral;right;SearchResponse;right;701.873029349372;1
12;f;NA;326.892682934646;3.78741189604625;VA;3;2;cluckinghen;high;peripheral;left;SearchResponse;left;968.182480894029;1
12;f;NA;334.099599525565;4.18746570358053;VA;3;3;firealarm;high;peripheral;left;SearchResponse;left;1368.84468398057;1
12;f;NA;340.622740491293;3.50347358430736;VA;3;4;microwaveoven;high;central;right;SearchResponse;right;684.691379545256;1
12;f;NA;347.262753891759;3.61994858668186;VA;3;5;growlingdog;high;peripheral;right;SearchResponse;right;801.551172276959;1
12;f;NA;354.069686601171;3.787189476192;VA;3;6;microwaveoven;high;central;left;SearchResponse;left;968.308110721409;1
12;f;NA;361.360250106081;4.27104703732766;VA;3;7;firealarm;low;peripheral;right;SearchResponse;right;1451.48695493117;1
12;f;NA;369.201505423989;4.821526307147;VA;3;8;cluckinghen;low;peripheral;right;SearchResponse;left;2002.78084282763;0
12;f;NA;376.675546874758;4.45448192139156;VA;3;9;microwaveoven;low;central;left;SearchResponse;left;1635.65902481787;1
12;f;NA;383.699659890961;4.00451042526402;VA;3;10;cluckinghen;high;central;right;SearchResponse;right;1185.20989851095;1
12;f;NA;391.073267444968;4.35432930872776;VA;3;11;growlingdog;high;central;left;SearchResponse;left;1535.58700508438;1
12;f;NA;398.280454653548;4.18754432117566;VA;3;12;cluckinghen;high;central;left;SearchResponse;left;1369.08448673785;1
12;f;NA;404.953916784842;3.65375484898686;VA;3;13;growlingdog;high;peripheral;left;SearchResponse;left;835.6873113662;1
12;f;NA;413.51284169429;5.53930651559494;VA;3;14;microwaveoven;low;central;right;SearchResponse;right;2719.27077858709;1
12;f;NA;420.502878225641;3.97070929873735;VA;3;15;firealarm;low;central;left;SearchResponse;left;1151.82477259077;1
12;f;NA;427.159496485488;3.63707058224827;VA;3;16;microwaveoven;high;peripheral;left;SearchResponse;left;818.222006782889;1
12;f;NA;433.665938962251;3.48687702137977;VA;3;17;firealarm;high;central;left;SearchResponse;left;668.586273910478;1
12;f;NA;441.123324590735;4.43772140773945;VA;3;18;microwaveoven;low;peripheral;left;SearchResponse;left;1619.31964755058;1
12;f;NA;448.280551048694;4.13744687894359;VA;3;19;cluckinghen;low;central;left;SearchResponse;left;1318.72946419753;1
12;f;NA;455.504463610239;4.20423490880057;VA;3;20;growlingdog;low;peripheral;right;SearchResponse;right;1385.66998788156;1
12;f;NA;462.77841830533;4.2543623757083;VA;3;21;microwaveoven;low;peripheral;right;SearchResponse;right;1435.48654089682;1
12;f;NA;469.468595518498;3.67107556085102;VA;3;22;cluckinghen;low;peripheral;left;SearchResponse;left;851.573157589883;1
12;f;NA;476.074985570507;3.58606133656576;VA;3;23;microwaveoven;high;peripheral;right;SearchResponse;right;768.56110827066;1
12;f;NA;482.682134141913;3.5873717579525;VA;3;24;cluckinghen;high;peripheral;right;SearchResponse;right;767.753206193447;1
12;f;NA;490.155838209437;4.45438710646704;VA;3;25;growlingdog;low;central;left;SearchResponse;left;1635.69458061829;1
12;f;NA;496.679785892135;3.50433798041195;VA;3;26;firealarm;high;central;right;SearchResponse;right;683.44890861772;1
12;f;NA;503.969590877648;4.27086412347853;VA;3;27;growlingdog;low;central;right;SearchResponse;right;1452.02344935387;1
12;f;NA;511.093324357644;4.1039997281041;VA;3;28;firealarm;low;central;right;SearchResponse;right;1285.49011610448;1
12;f;NA;517.883856849978;3.77077582711354;VA;3;29;cluckinghen;low;central;right;SearchResponse;right;952.206165529788;1
12;f;NA;524.290019899374;3.38676984095946;VA;3;30;growlingdog;high;central;right;SearchResponse;right;567.903487710282;1
12;f;NA;531.34716801648;4.0373562911991;VA;3;31;firealarm;low;peripheral;left;SearchResponse;left;1218.48914795555;1
12;f;NA;539.488562752027;5.12178858881816;VA;3;32;growlingdog;low;peripheral;left;SearchResponse;left;2303.16164321266;1
12;f;NA;545.694647341967;3.17559764022008;VO;4;1;visual only;low;peripheral;left;SearchResponse;left;2152.84482319839;1
12;f;NA;551.117182558635;2.40273272409104;VO;4;2;visual only;high;peripheral;left;SearchResponse;left;1385.3649997618;1
12;f;NA;556.239792876877;2.10273750429042;VO;4;3;visual only;low;peripheral;left;SearchResponse;left;1085.17975523137;1
12;f;NA;561.043385730591;1.78500083158724;VO;4;4;visual only;high;peripheral;right;SearchResponse;right;768.233996815979;1
12;f;NA;565.948390259873;1.88530554296449;VO;4;5;visual only;high;peripheral;left;SearchResponse;left;868.435202166438;1
12;f;NA;570.536284685135;1.56818279693834;VO;4;6;visual only;high;central;right;SearchResponse;right;551.325097912923;1
12;f;NA;575.14095463627;1.58499664394185;VO;4;7;visual only;high;central;left;SearchResponse;left;567.931142169982;1
12;f;NA;579.995745575288;1.83513659471646;VO;4;8;visual only;low;central;left;SearchResponse;left;818.476031767204;1
12;f;NA;584.66719565494;1.65178388357162;VO;4;9;visual only;high;peripheral;left;SearchResponse;left;634.519665502012;1
12;f;NA;589.337504795054;1.65058684512042;VO;4;10;visual only;high;central;left;SearchResponse;left;633.405985310674;1
12;f;NA;595.628820893588;3.27065039472654;VO;4;11;visual only;low;peripheral;left;SearchResponse;left;2252.95437383465;1
12;f;NA;600.49971614778;1.85187498503365;VO;4;12;visual only;low;central;right;SearchResponse;right;834.364247974008;1
12;f;NA;606.055108015891;2.53584458585829;VO;4;13;visual only;low;peripheral;right;SearchResponse;right;1519.03547928669;1
12;f;NA;610.826592584606;1.75173224904574;VO;4;14;visual only;high;central;right;SearchResponse;right;735.464377794415;1
12;f;NA;615.464528353186;1.61821900424547;VO;4;15;visual only;high;central;right;SearchResponse;right;601.382243679836;1
12;f;NA;620.319585959194;1.83527249610052;VO;4;16;visual only;low;central;left;SearchResponse;left;818.142204079777;1
12;f;NA;625.191018102923;1.85195083683357;VO;4;17;visual only;high;peripheral;right;SearchResponse;right;834.839507937431;1
12;f;NA;630.079278316349;1.86813851026818;VO;4;18;visual only;high;central;left;SearchResponse;left;851.439231308177;1
12;f;NA;635.084141136846;1.98523296997882;VO;4;19;visual only;low;central;left;SearchResponse;left;968.476012116298;1
12;f;NA;640.122732787393;2.01852051587775;VO;4;20;visual only;low;central;right;SearchResponse;right;1002.01481720433;1
12;f;NA;645.211205781205;2.0687696619425;VO;4;21;visual only;low;peripheral;right;SearchResponse;right;1051.71166639775;1
12;f;NA;650.850289600436;2.61952310474589;VO;4;22;visual only;low;central;right;SearchResponse;right;1602.78826998547;1
12;f;NA;655.671636549057;1.80184154282324;VO;4;23;visual only;high;peripheral;right;SearchResponse;right;784.846362192184;1
12;f;NA;660.442913315026;1.75166390324011;VO;4;24;visual only;low;peripheral;right;SearchResponse;right;735.219044145197;1
12;f;NA;665.414507552981;1.95183046138845;VO;4;25;visual only;high;peripheral;left;SearchResponse;left;934.960120590404;1
12;f;NA;670.436282591196;2.00206459523179;VO;4;26;visual only;low;central;left;SearchResponse;left;985.105365049094;1
12;f;NA;675.074270507786;1.61825258447789;VO;4;27;visual only;high;peripheral;right;SearchResponse;right;601.457700366154;1
12;f;NA;679.729443234857;1.63546583941206;VO;4;28;visual only;high;central;right;SearchResponse;right;618.106806650758;1
12;f;NA;685.501471409108;2.75210005184636;VO;4;29;visual only;low;peripheral;left;SearchResponse;left;1719.67532206327;1
12;f;NA;690.23966053105;1.71804411010817;VO;4;30;visual only;low;central;right;SearchResponse;right;701.270164456218;1
12;f;NA;695.294425633037;2.03527826396748;VO;4;31;visual only;high;central;left;SearchResponse;left;1018.57305900194;1
12;f;NA;700.015925352229;1.70178572041914;VO;4;32;visual only;low;peripheral;right;SearchResponse;right;684.723379323259;1
13;m;NA;68.5504147151951;3.35368384455796;VO;2;2;visual only;low;central;left;SearchResponse;left;2336.29839739297;1
13;m;NA;73.4888535528444;1.91928509774152;VO;2;3;visual only;high;central;right;SearchResponse;right;901.996440486982;1
13;m;NA;78.4938032714999;1.98530373268295;VO;2;4;visual only;low;central;left;SearchResponse;left;967.953050974756;1
13;m;NA;83.9158342403243;2.40232967439806;VO;2;5;visual only;low;peripheral;left;SearchResponse;left;1385.22037485382;1
13;m;NA;88.5703913671314;1.6353409672156;VO;2;6;visual only;high;central;left;SearchResponse;left;618.463568505831;1
13;m;NA;93.1249984691385;1.53523370821495;VO;2;7;visual only;high;peripheral;left;SearchResponse;right;518.017742200755;0
13;m;NA;98.0800310517661;1.93578600342153;VO;2;8;visual only;low;central;left;SearchResponse;left;918.309297121596;1
13;m;NA;102.717506928369;1.61794722382911;VO;2;9;visual only;high;peripheral;left;SearchResponse;left;601.407602138352;1
13;m;NA;108.056575098133;2.31966475123772;VO;2;10;visual only;low;peripheral;left;SearchResponse;left;1302.83752520336;1
13;m;NA;113.895436058403;2.81959502300015;VO;2;11;visual only;low;peripheral;right;SearchResponse;right;1801.88246542821;1
13;m;NA;118.767298434977;1.85193747765152;VO;2;12;visual only;high;peripheral;right;SearchResponse;right;835.178597189952;1
13;m;NA;123.45540532266;1.66844430926722;VO;2;13;visual only;high;central;right;SearchResponse;right;651.52266365476;1
13;m;NA;129.127348686685;2.65278606856009;VO;2;14;visual only;low;peripheral;right;SearchResponse;right;1635.60249755392;1
13;m;NA;133.782153516717;1.63476891897153;VO;2;15;visual only;high;central;right;SearchResponse;right;618.160556710791;1
13;m;NA;138.437177210522;1.63542076951126;VO;2;16;visual only;high;central;left;SearchResponse;left;617.361743468791;1
13;m;NA;143.457929367025;2.00182439142372;VO;2;17;visual only;low;peripheral;left;SearchResponse;left;985.227485944051;1
13;m;NA;148.84680129023;2.36846109933686;VO;2;18;visual only;low;central;right;SearchResponse;right;1351.23881237814;1
13;m;NA;153.618588012643;1.75149046623847;VO;2;19;visual only;high;central;left;SearchResponse;left;735.425707825925;1
13;m;NA;158.405789618206;1.76724194124108;VO;2;20;visual only;low;central;left;SearchResponse;left;750.471603998449;1
13;m;NA;163.292580557871;1.86656342406059;VO;2;21;visual only;low;central;right;SearchResponse;right;834.469462803099;1
13;m;NA;168.080698704754;1.76861872867448;VO;2;22;visual only;high;peripheral;left;SearchResponse;left;750.953183276579;1
13;m;NA;173.104810459598;2.00202547747176;VO;2;23;visual only;low;central;right;SearchResponse;right;984.436968981754;1
13;m;NA;179.628049327293;3.50286201905692;VO;2;24;visual only;low;peripheral;left;SearchResponse;left;2486.54679197352;1
13;m;NA;185.283709464245;2.63605681766057;VO;2;25;visual only;low;peripheral;right;SearchResponse;right;1619.05971542001;1
13;m;NA;190.689127330086;2.38615548412781;VO;2;26;visual only;low;peripheral;right;SearchResponse;right;1369.06633275794;1
13;m;NA;195.793662432232;2.08533909067046;VO;2;27;visual only;low;central;right;SearchResponse;right;1068.0271248566;1
13;m;NA;200.548549237428;1.73466165992431;VO;2;28;visual only;high;peripheral;right;SearchResponse;right;717.813890776597;1
13;m;NA;205.337022939173;1.76833823538618;VO;2;29;visual only;high;peripheral;right;SearchResponse;right;751.557626528665;1
13;m;NA;210.108266057738;1.75207199587021;VO;2;30;visual only;high;central;left;SearchResponse;left;734.227487933822;1
13;m;NA;214.945790526806;1.81810050742934;VO;2;31;visual only;high;peripheral;right;SearchResponse;right;801.139355753548;1
13;m;NA;219.550638714747;1.58460724027827;VO;2;32;visual only;high;central;right;SearchResponse;right;567.936853505671;1
13;m;NA;226.390430833679;3.80997054820182;VA;3;1;microwaveoven;high;central;left;SearchResponse;left;984.661758702714;1
13;m;NA;232.797578671423;3.3867520262138;VA;3;2;growlingdog;high;central;left;SearchResponse;left;568.075914867222;1
13;m;NA;239.153476832609;3.33641059475485;VA;3;3;firealarm;high;central;left;SearchResponse;left;517.646384891123;1
13;m;NA;245.726380392327;3.55306201858912;VA;3;4;growlingdog;high;central;right;SearchResponse;right;733.56418061303;1
13;m;NA;252.116375078738;3.36898613529047;VA;3;5;microwaveoven;high;central;right;SearchResponse;right;551.285824622028;1
13;m;NA;258.523400842678;3.38760614790954;VA;3;6;cluckinghen;high;central;left;SearchResponse;left;568.384457495995;1
13;m;NA;264.91336234397;3.37004963943036;VA;3;7;firealarm;high;central;right;SearchResponse;right;552.72305640392;1
13;m;NA;271.45264621696;3.51972677587764;VA;3;8;growlingdog;high;peripheral;left;SearchResponse;left;700.814023090061;1
13;m;NA;277.77558839391;3.30297461140435;VA;3;9;microwaveoven;high;peripheral;left;SearchResponse;left;484.097019070759;1
13;m;NA;284.298720200022;3.50312829011818;VA;3;10;growlingdog;high;peripheral;right;SearchResponse;right;684.764672070742;1
13;m;NA;290.871850524738;3.55386004172033;VA;3;11;microwaveoven;high;peripheral;right;SearchResponse;right;734.669561148621;1
13;m;NA;297.645335219102;3.75352226465475;VA;3;12;growlingdog;low;central;left;SearchResponse;left;935.101757815573;1
13;m;NA;304.152013131825;3.48694975418039;VA;3;13;cluckinghen;high;central;right;SearchResponse;right;667.749397049192;1
13;m;NA;310.691482288414;3.51987729407847;VA;3;14;microwaveoven;low;central;left;SearchResponse;left;701.304293761496;1
13;m;NA;317.73271914525;4.0213870194857;VA;3;15;growlingdog;low;central;right;SearchResponse;right;1201.95199613227;1
13;m;NA;324.23720051907;3.48471094376873;VA;3;16;firealarm;high;peripheral;left;SearchResponse;left;665.713252907153;1
13;m;NA;330.945297490747;3.6869600257487;VA;3;17;growlingdog;low;peripheral;left;SearchResponse;left;868.3384329197;1
13;m;NA;338.019386825908;4.05464680562727;VA;3;18;microwaveoven;low;central;right;SearchResponse;right;1235.53968284978;1
13;m;NA;344.45910664869;3.41338505997555;VA;3;19;cluckinghen;high;peripheral;left;SearchResponse;left;585.081313445698;1
13;m;NA;352.30030755495;4.82156519195996;VA;3;20;growlingdog;low;peripheral;right;SearchResponse;right;2003.42596851988;1
13;m;NA;358.839274194033;3.51944865292171;VA;3;21;firealarm;high;peripheral;right;SearchResponse;right;699.963456834666;1
13;m;NA;365.279884089134;3.4204756138497;VA;3;22;cluckinghen;high;peripheral;right;SearchResponse;right;601.305676449556;1
13;m;NA;371.886568125279;3.58722017338732;VA;3;23;microwaveoven;low;peripheral;left;SearchResponse;left;767.61724910466;1
13;m;NA;378.443728901271;3.53742471616715;VA;3;24;firealarm;low;central;left;SearchResponse;left;718.050137220416;1
13;m;NA;384.865666240628;3.40277964883717;VA;3;25;cluckinghen;low;central;left;SearchResponse;left;585.269362432882;1
13;m;NA;392.623559064581;4.73807893710909;VA;3;26;microwaveoven;low;peripheral;right;SearchResponse;right;1919.80341763701;1
13;m;NA;399.129676780896;3.48595301539171;VA;3;27;cluckinghen;low;central;right;SearchResponse;right;667.338928673416;1
13;m;NA;406.704221423774;4.55437441112008;VA;3;28;firealarm;low;central;right;SearchResponse;right;1735.70067022229;1
13;m;NA;413.62783046352;3.90339061059058;VA;3;29;cluckinghen;low;peripheral;left;SearchResponse;left;1084.93691863259;1
13;m;NA;422.203166018415;5.55573065538192;VA;3;30;firealarm;low;peripheral;left;SearchResponse;left;2736.76851997152;1
13;m;NA;429.076589675853;3.85330952430377;VA;3;31;cluckinghen;low;peripheral;right;SearchResponse;right;1034.57217861433;1
13;m;NA;435.84888642194;3.7521585142822;VA;3;32;firealarm;low;peripheral;right;SearchResponse;right;934.336919803172;1
13;m;NA;442.372827312909;3.49241305200849;VA;4;1;microwaveoven;high;central;left;SearchResponse;left;667.617841740139;1
13;m;NA;448.763392467343;3.36974188691238;VA;4;2;growlingdog;high;central;left;SearchResponse;left;551.16651620483;1
13;m;NA;455.13559360872;3.35262271086685;VA;4;3;firealarm;high;central;left;SearchResponse;left;534.816128725652;1
13;m;NA;461.609534795978;3.453554857173;VA;4;4;growlingdog;high;central;right;SearchResponse;right;635.435386793688;1
13;m;NA;467.982759145147;3.35386517754523;VA;4;5;microwaveoven;high;central;right;SearchResponse;right;535.160621860996;1
13;m;NA;474.421382278728;3.41967561549973;VA;4;6;cluckinghen;high;central;left;SearchResponse;left;600.087703554891;1
13;m;NA;480.811442545266;3.36940766533371;VA;4;7;firealarm;high;central;right;SearchResponse;right;551.731453335378;1
13;m;NA;487.301211059326;3.47004233073676;VA;4;8;growlingdog;high;peripheral;left;SearchResponse;left;651.341725781094;1
13;m;NA;493.674030866125;3.35269500705181;VA;4;9;microwaveoven;high;peripheral;left;SearchResponse;left;534.669166081585;1
13;m;NA;500.030612087692;3.33641019969946;VA;4;10;growlingdog;high;peripheral;right;SearchResponse;right;517.777940200176;1
13;m;NA;506.436954791192;3.38640002685133;VA;4;11;microwaveoven;high;peripheral;right;SearchResponse;right;566.61379430443;1
13;m;NA;513.010030597448;3.55266261205543;VA;4;12;growlingdog;low;central;left;SearchResponse;left;735.367238812614;1
13;m;NA;519.449560790963;3.41937852959381;VA;4;13;cluckinghen;high;central;right;SearchResponse;right;600.75970221078;1
13;m;NA;525.923982767446;3.45385510346387;VA;4;14;microwaveoven;low;central;left;SearchResponse;left;634.011587128043;1
13;m;NA;532.980119742977;4.03679558163276;VA;4;15;growlingdog;low;central;right;SearchResponse;right;1218.70297536952;1
13;m;NA;539.38621079264;3.38638106390135;VA;4;16;firealarm;high;peripheral;left;SearchResponse;left;567.148311762139;1
13;m;NA;546.677760636492;4.27088223036844;VA;4;17;growlingdog;low;peripheral;left;SearchResponse;left;1454.12927574944;1
13;m;NA;553.667306928779;3.9698355163564;VA;4;18;microwaveoven;low;central;right;SearchResponse;right;1151.15703479387;1
13;m;NA;560.207944280584;3.52028381178388;VA;4;19;cluckinghen;high;peripheral;left;SearchResponse;left;701.313380093779;1
13;m;NA;567.097703313164;3.87054366315715;VA;4;20;growlingdog;low;peripheral;right;SearchResponse;right;1051.53925617924;1
13;m;NA;573.687621752848;3.56975650414824;VA;4;21;firealarm;high;peripheral;right;SearchResponse;right;751.345478813164;1
13;m;NA;580.177586612175;3.46984005958075;VA;4;22;cluckinghen;high;peripheral;right;SearchResponse;right;650.988541252445;1
13;m;NA;586.934565265023;3.73761869111331;VA;4;23;microwaveoven;low;peripheral;left;SearchResponse;left;917.896063416265;1
13;m;NA;593.423548792955;3.46973457833519;VA;4;24;firealarm;low;central;left;SearchResponse;left;650.87752911495;1
13;m;NA;599.896625586902;3.45307999389479;VA;4;25;cluckinghen;low;central;left;SearchResponse;left;634.399932052474;1
13;m;NA;607.204726509168;4.2875063950778;VA;4;26;microwaveoven;low;peripheral;right;SearchResponse;right;1468.69359270204;1
13;m;NA;614.194689590717;3.97072282328736;VA;4;27;cluckinghen;low;central;right;SearchResponse;right;1151.74686076352;1
13;m;NA;621.385354300495;4.17084726749454;VA;4;28;firealarm;low;central;right;SearchResponse;right;1350.91249202378;1
13;m;NA;628.592713100777;4.18811419629492;VA;4;29;cluckinghen;low;peripheral;left;SearchResponse;left;1369.12756715901;1
13;m;NA;636.667358681734;5.05524887854699;VA;4;30;firealarm;low;peripheral;left;SearchResponse;left;2235.92210188508;1
13;m;NA;643.490847425477;3.80361085705226;VA;4;31;cluckinghen;low;peripheral;right;SearchResponse;right;984.840326244012;1
13;m;NA;650.163745651837;3.65310725313611;VA;4;32;firealarm;low;peripheral;right;SearchResponse;right;834.572968713474;1
15;f;NA;82.5332679636776;4.07526244944893;VA;2;1;firealarm;high;central;left;SearchResponse;left;1251.2842474971;1
15;f;NA;89.5241609972436;3.97115732193924;VA;2;2;cluckinghen;high;central;left;SearchResponse;left;1152.15927013196;1
15;f;NA;96.3622176246718;3.82065415126272;VA;2;3;firealarm;high;central;right;SearchResponse;right;1001.047704136;1
15;f;NA;103.037151224446;3.65500391297974;VA;2;4;cluckinghen;high;central;right;SearchResponse;right;834.109564311802;1
15;f;NA;110.144214575412;4.08744339249097;VA;2;5;firealarm;high;peripheral;left;SearchResponse;left;1268.52474804036;1
15;f;NA;116.784271717304;3.6202700722497;VA;2;6;microwaveoven;high;central;left;SearchResponse;left;801.376316463575;1
15;f;NA;123.841268480523;4.0372365580406;VA;2;7;cluckinghen;high;peripheral;left;SearchResponse;left;1219.62398802862;1
15;f;NA;131.115898119751;4.25499348342419;VA;2;8;microwaveoven;high;central;right;SearchResponse;right;1434.92402369156;1
15;f;NA;138.005465681199;3.87048291182145;VA;2;9;growlingdog;high;central;left;SearchResponse;left;1051.72703275457;1
15;f;NA;144.862299995031;3.83717682445422;VA;2;10;cluckinghen;high;peripheral;right;SearchResponse;right;1018.20919243619;1
15;f;NA;151.902700603474;4.02078776131384;VA;2;11;microwaveoven;high;peripheral;left;SearchResponse;left;1200.82891895436;1
15;f;NA;160.111004883423;5.18862427212298;VA;2;12;cluckinghen;low;central;left;SearchResponse;left;2369.64794853702;1
15;f;NA;167.151221393142;4.02068702061661;VA;2;13;microwaveoven;high;peripheral;right;SearchResponse;right;1202.38822815008;1
15;f;NA;173.841248727404;3.6703267833218;VA;2;14;growlingdog;high;central;right;SearchResponse;right;851.904336363077;1
15;f;NA;180.498074270785;3.63704835041426;VA;2;15;firealarm;high;peripheral;right;SearchResponse;right;818.042397266254;1
15;f;NA;187.538366632536;4.02069729217328;VA;2;16;growlingdog;high;peripheral;left;SearchResponse;left;1201.96827733889;1
15;f;NA;195.813226197846;5.2551874590572;VA;2;17;microwaveoven;low;central;left;SearchResponse;left;2436.54812313616;1
15;f;NA;203.82124358369;4.98825046466663;VA;2;18;cluckinghen;low;central;right;SearchResponse;right;2169.54633849673;1
15;f;NA;211.078571882797;4.23763920483179;VA;2;19;growlingdog;high;peripheral;right;SearchResponse;right;1418.58702967875;1
15;f;NA;218.969793568365;4.87132715899497;VA;2;20;cluckinghen;low;peripheral;left;SearchResponse;left;2052.9987369664;1
15;f;NA;226.777574233012;4.78813897818327;VA;2;21;firealarm;low;central;left;SearchResponse;left;1969.10616056994;1
15;f;NA;234.552025502082;4.75471634767018;VA;2;22;growlingdog;low;central;left;SearchResponse;left;1935.56343135424;1
15;f;NA;241.892654969823;4.32091666990891;VA;2;23;firealarm;low;central;right;SearchResponse;right;1502.09284038283;1
15;f;NA;250.551521403017;5.63910385756753;VA;2;24;cluckinghen;low;peripheral;right;SearchResponse;right;2820.0809166301;1
15;f;NA;258.025618578074;4.45439583365805;VA;2;25;firealarm;low;peripheral;left;SearchResponse;left;1635.07146085612;1
15;f;NA;265.483009770978;4.43771276553161;VA;2;26;growlingdog;low;central;right;SearchResponse;right;1618.86286176741;1
15;f;NA;272.824408029439;4.32170916395262;VA;2;27;firealarm;low;peripheral;right;SearchResponse;right;1502.07506259903;1
15;f;NA;280.381107508671;4.53761878027581;VA;2;28;microwaveoven;low;central;right;SearchResponse;right;1718.36907393299;1
15;f;NA;287.621786319651;4.22096443292685;VA;2;29;growlingdog;low;peripheral;left;SearchResponse;left;1401.42396115698;1
15;f;NA;294.929142490495;4.28767260746099;VA;2;30;microwaveoven;low;peripheral;left;SearchResponse;left;1468.61648140475;1
15;f;NA;302.469952580752;4.52114707021974;VA;2;31;growlingdog;low;peripheral;right;SearchResponse;right;1703.33617902361;1
15;f;NA;309.627069877461;4.1374127950985;VA;2;32;microwaveoven;low;peripheral;right;SearchResponse;right;1318.45187884755;1
15;f;NA;316.46728314762;3.80847715889104;VA;3;1;firealarm;high;central;left;SearchResponse;left;984.916932415217;1
15;f;NA;322.990462416084;3.50346647039987;VA;3;2;cluckinghen;high;central;left;SearchResponse;left;684.64264087379;1
15;f;NA;329.547129895072;3.5368954220321;VA;3;3;firealarm;high;central;right;SearchResponse;right;717.940826900303;1
15;f;NA;336.053629650734;3.48688058741391;VA;3;4;cluckinghen;high;central;right;SearchResponse;right;668.069399660453;1
15;f;NA;342.610044290312;3.53627319959924;VA;3;5;firealarm;high;peripheral;left;SearchResponse;left;718.006407143548;1
15;f;NA;349.050098192645;3.42026959825307;VA;3;6;microwaveoven;high;central;left;SearchResponse;left;601.203200407326;1
15;f;NA;355.573092967039;3.50351269263774;VA;3;7;cluckinghen;high;peripheral;left;SearchResponse;left;684.765110025182;1
15;f;NA;362.563985605491;3.97153658117168;VA;3;8;microwaveoven;high;central;right;SearchResponse;right;1151.66425751522;1
15;f;NA;368.919922141125;3.33681198488921;VA;3;9;growlingdog;high;central;left;SearchResponse;left;518.417587736621;1
15;f;NA;375.409787816228;3.47026981553063;VA;3;10;cluckinghen;high;peripheral;right;SearchResponse;right;651.559368474409;1
15;f;NA;381.899403812131;3.47011218569241;VA;3;11;microwaveoven;high;peripheral;left;SearchResponse;left;651.249639922753;1
15;f;NA;389.039872805821;4.12071945518255;VA;3;12;cluckinghen;low;central;left;SearchResponse;left;1302.33493424021;1
15;f;NA;395.678848268231;3.61926108412445;VA;3;13;microwaveoven;high;peripheral;right;SearchResponse;right;800.652563106269;1
15;f;NA;402.303183527198;3.60357475699857;VA;3;14;growlingdog;high;central;right;SearchResponse;right;784.765149466693;1
15;f;NA;408.809628369287;3.48674784647301;VA;3;15;firealarm;high;peripheral;right;SearchResponse;right;668.381893774495;1
15;f;NA;415.549695427064;3.72025154391304;VA;3;16;growlingdog;high;peripheral;left;SearchResponse;left;901.712553575635;1
15;f;NA;422.840334949316;4.27091921796091;VA;3;17;microwaveoven;low;central;left;SearchResponse;left;1452.28304294869;1
15;f;NA;430.130865039304;4.27078331680968;VA;3;18;cluckinghen;low;central;right;SearchResponse;right;1452.10842555389;1
15;f;NA;436.687618247001;3.53694717492908;VA;3;19;growlingdog;high;peripheral;right;SearchResponse;right;718.284925678745;1
15;f;NA;443.627832741942;3.92054989445023;VA;3;20;cluckinghen;low;peripheral;left;SearchResponse;left;1101.80665762164;1
15;f;NA;451.001835457515;4.35420497949235;VA;3;21;firealarm;low;central;left;SearchResponse;left;1535.577890696;1
15;f;NA;458.008912201039;3.98736473568715;VA;3;22;growlingdog;low;central;left;SearchResponse;left;1168.27384429052;1
15;f;NA;465.115972786443;4.08696220722049;VA;3;23;firealarm;low;central;right;SearchResponse;right;1268.57413072139;1
15;f;NA;472.490072292276;4.35437011532485;VA;3;24;cluckinghen;low;peripheral;right;SearchResponse;right;1535.51270533353;1
15;f;NA;479.163840064779;3.65392302372493;VA;3;25;firealarm;low;peripheral;left;SearchResponse;left;834.614453138784;1
15;f;NA;486.086934552761;3.90378662873991;VA;3;26;growlingdog;low;central;right;SearchResponse;right;1084.95766320266;1
15;f;NA;493.277660554042;4.17092707986012;VA;3;27;firealarm;low;peripheral;right;SearchResponse;right;1351.98591672815;1
15;f;NA;500.334654551931;4.03746529878117;VA;3;28;microwaveoven;low;central;right;SearchResponse;right;1218.54546922259;1
15;f;NA;507.041247226065;3.68644846859388;VA;3;29;growlingdog;low;peripheral;left;SearchResponse;left;868.102663895115;1
15;f;NA;515.349564582575;5.28863260801882;VA;3;30;microwaveoven;low;peripheral;left;SearchResponse;left;2469.25174095668;1
15;f;NA;522.990485329647;4.62122651701793;VA;3;31;growlingdog;low;peripheral;right;SearchResponse;right;1803.07942838408;1
15;f;NA;529.964721368859;3.95441894512624;VA;3;32;microwaveoven;low;peripheral;right;SearchResponse;right;1135.09141141549;1
15;f;NA;534.618881824659;1.62331323395483;VO;4;1;visual only;high;central;right;SearchResponse;right;601.838459959254;1
15;f;NA;540.474838706199;2.83627687371336;VO;4;2;visual only;low;peripheral;right;SearchResponse;right;1819.12447186187;1
15;f;NA;545.412973200204;1.92494140239432;VO;4;3;visual only;low;peripheral;right;SearchResponse;right;901.568751316518;1
15;f;NA;551.402266628109;2.96959406207316;VO;4;4;visual only;low;central;right;SearchResponse;right;1952.50289491378;1
15;f;NA;556.107017128728;1.68497567810118;VO;4;5;visual only;high;central;left;SearchResponse;left;667.297448730096;1
15;f;NA;560.795121301664;1.66840085666627;VO;4;6;visual only;low;central;left;SearchResponse;left;651.277294382453;1
15;f;NA;565.46638635709;1.65159610938281;VO;4;7;visual only;high;peripheral;left;SearchResponse;left;634.74355940707;1
15;f;NA;570.77165225544;2.28558194008656;VO;4;8;visual only;low;central;right;SearchResponse;right;1269.09600757062;1
15;f;NA;575.760047312593;1.96865065442398;VO;4;9;visual only;low;peripheral;left;SearchResponse;left;952.93035171926;1
15;f;NA;580.581530303694;1.80180100817233;VO;4;10;visual only;high;central;left;SearchResponse;left;784.764359472319;1
15;f;NA;585.11942641763;1.51828366145492;VO;4;11;visual only;high;central;left;SearchResponse;left;501.358420355245;1
15;f;NA;589.657217444852;1.51806953805499;VO;4;12;visual only;high;peripheral;left;SearchResponse;left;501.330370781943;1
15;f;NA;594.745652047684;2.06870758277364;VO;4;13;visual only;low;peripheral;left;SearchResponse;left;1051.65276117623;1
15;f;NA;600.217807493405;2.45239840098657;VO;4;14;visual only;low;central;left;SearchResponse;left;1435.40560407564;1
15;f;NA;605.189408074832;1.95179533911869;VO;4;15;visual only;low;peripheral;left;SearchResponse;left;934.996912488714;1
15;f;NA;609.877823951654;1.6685979925096;VO;4;16;visual only;high;peripheral;left;SearchResponse;left;651.323121506721;1
15;f;NA;615.082659588195;2.18551869061776;VO;4;17;visual only;high;central;right;SearchResponse;right;1168.40302944183;1
15;f;NA;620.287855125964;2.18527493742295;VO;4;18;visual only;low;peripheral;right;SearchResponse;right;1168.29122696072;1
15;f;NA;625.059307875345;1.75143733387813;VO;4;19;visual only;high;peripheral;right;SearchResponse;right;734.565821010619;1
15;f;NA;629.714169566054;1.63513862132095;VO;4;20;visual only;high;peripheral;right;SearchResponse;right;618.018219480291;1
15;f;NA;634.484450166579;1.75077837053686;VO;4;21;visual only;high;peripheral;left;SearchResponse;left;733.054314274341;1
15;f;NA;639.223806903232;1.71849193819799;VO;4;22;visual only;high;central;right;SearchResponse;right;701.510203070939;1
15;f;NA;643.778125344543;1.5348960137926;VO;4;23;visual only;high;central;left;SearchResponse;left;517.884253989905;1
15;f;NA;648.899793738266;2.10201999079436;VO;4;24;visual only;low;peripheral;left;SearchResponse;left;1085.41040425189;1
15;f;NA;653.888171017636;1.96846616035327;VO;4;25;visual only;high;peripheral;right;SearchResponse;right;951.626647496596;1
15;f;NA;659.243744096253;2.33566512027755;VO;4;26;visual only;low;central;left;SearchResponse;left;1318.51982953958;1
15;f;NA;663.965475542005;1.70217272173613;VO;4;27;visual only;high;peripheral;right;SearchResponse;right;684.848073171452;1
15;f;NA;669.120267109247;2.13563778204843;VO;4;28;visual only;low;central;left;SearchResponse;left;1119.40547917038;1
15;f;NA;674.291936905356;2.15221339347772;VO;4;29;visual only;low;central;right;SearchResponse;right;1135.86257211864;1
15;f;NA;679.296932067955;1.98534201877192;VO;4;30;visual only;low;central;right;SearchResponse;right;968.160777585581;1
15;f;NA;683.968475641916;1.65185566502623;VO;4;31;visual only;high;central;right;SearchResponse;right;634.403015952557;1
15;f;NA;690.141049734782;3.15309240622446;VO;4;32;visual only;low;peripheral;right;SearchResponse;right;2136.0589179676;1
16;m;NA;71.4866121483501;1.87126716040075;VO;2;1;visual only;high;central;left;SearchResponse;right;852.392691420391;0
16;m;NA;77.2424458272289;2.73616197542287;VO;2;2;visual only;low;central;left;SearchResponse;right;1719.20158015564;0
16;m;NA;83.4652835556772;3.20490785175934;VO;2;3;visual only;low;peripheral;right;SearchResponse;right;2186.51930848137;1
16;m;NA;88.9714042469859;2.48644148162566;VO;2;4;visual only;low;central;right;SearchResponse;right;1469.01254332624;1
16;m;NA;94.709874963155;2.71933471597731;VO;2;5;visual only;low;peripheral;right;SearchResponse;right;1701.64029626176;1
16;m;NA;99.4982842470054;1.76878775306977;VO;2;6;visual only;high;central;left;SearchResponse;left;751.678814878687;1
16;m;NA;104.236176987644;1.71852325927466;VO;2;7;visual only;high;central;right;SearchResponse;right;701.930271694437;1
16;m;NA;109.725012938259;2.46924207406119;VO;2;8;visual only;low;peripheral;left;SearchResponse;left;1452.33817282133;1
16;m;NA;114.429637531051;1.68502123444341;VO;2;9;visual only;high;central;right;SearchResponse;right;668.238617246971;1
16;m;NA;119.134272395167;1.68494459241629;VO;2;10;visual only;high;peripheral;left;SearchResponse;left;668.09995053336;1
16;m;NA;124.489650567994;2.33567249379121;VO;2;11;visual only;high;peripheral;left;SearchResponse;left;1318.76977765933;1
16;m;NA;129.895040790318;2.38561343215406;VO;2;12;visual only;low;central;left;SearchResponse;left;1369.02992590331;1
16;m;NA;134.699939950835;1.78482883935794;VO;2;13;visual only;low;central;left;SearchResponse;left;768.848592648283;1
16;m;NA;139.319005234633;1.60127644450404;VO;2;14;visual only;high;central;left;SearchResponse;left;583.062123507261;1
16;m;NA;145.026908444474;2.68840730865486;VO;2;15;visual only;low;peripheral;left;SearchResponse;left;1669.37600006349;1
16;m;NA;149.782438321039;1.73583051864989;VO;2;16;visual only;high;peripheral;right;SearchResponse;right;718.311506090686;1
16;m;NA;155.170455703745;2.36907219770364;VO;2;17;visual only;low;central;left;SearchResponse;left;1352.25758026354;1
16;m;NA;159.908448000206;1.71832533343695;VO;2;18;visual only;high;central;right;SearchResponse;right;702.726715942845;1
16;m;NA;164.562960197683;1.63487288891338;VO;2;19;visual only;high;peripheral;right;SearchResponse;right;602.613728493452;1
16;m;NA;169.301257481566;1.71794686419889;VO;2;20;visual only;high;peripheral;right;SearchResponse;right;701.597234699875;1
16;m;NA;174.005695604952;1.68438597535715;VO;2;21;visual only;high;peripheral;left;SearchResponse;left;667.230419581756;1
16;m;NA;178.860890864395;1.83520948141813;VO;2;22;visual only;low;central;right;SearchResponse;right;818.133333465084;1
16;m;NA;183.815625876654;1.93515377771109;VO;2;23;visual only;low;peripheral;left;SearchResponse;left;918.839308666065;1
16;m;NA;188.520424691495;1.685075358022;VO;2;24;visual only;high;peripheral;right;SearchResponse;right;668.206222122535;1
16;m;NA;193.24162449385;1.7014905679971;VO;2;25;visual only;low;central;right;SearchResponse;right;684.816197492182;1
16;m;NA;197.746294123586;1.48464790126309;VO;2;26;visual only;high;central;left;SearchResponse;left;468.540839618072;1
16;m;NA;202.351041580318;1.58513540751301;VO;2;27;visual only;high;peripheral;left;SearchResponse;left;568.244938272983;1
16;m;NA;208.874154271791;3.5034848395735;VO;2;28;visual only;low;central;right;SearchResponse;right;2485.30054325238;1
16;m;NA;213.962516543223;2.06874429644085;VO;2;29;visual only;low;peripheral;right;SearchResponse;right;1052.03871615231;1
16;m;NA;219.017473580316;2.03528809873387;VO;2;30;visual only;low;peripheral;left;SearchResponse;left;1018.61728401855;1
16;m;NA;223.822556444444;1.78539101220667;VO;2;31;visual only;high;central;right;SearchResponse;right;768.255604896694;1
16;m;NA;228.844069926068;2.00199980242178;VO;2;32;visual only;low;peripheral;right;SearchResponse;right;985.191901214421;1
16;m;NA;235.300555061782;3.42534123454243;VA;3;1;firealarm;high;peripheral;left;SearchResponse;left;601.857580244541;1
16;m;NA;242.52304987656;4.20283812331036;VA;3;2;growlingdog;low;central;right;SearchResponse;right;1384.55901225097;1
16;m;NA;249.031055802479;3.48699812358245;VA;3;3;cluckinghen;high;peripheral;left;SearchResponse;left;668.337777722627;1
16;m;NA;255.403747555567;3.35301965428516;VA;3;4;growlingdog;high;central;right;SearchResponse;right;534.672987647355;1
16;m;NA;261.97745777783;3.55331674078479;VA;3;5;cluckinghen;low;central;left;SearchResponse;left;735.229234676808;1
16;m;NA;268.500151308719;3.50298706162721;VA;3;6;firealarm;high;peripheral;right;SearchResponse;right;684.69017278403;1
16;m;NA;274.856648296351;3.33655703719705;VA;3;7;microwaveoven;high;central;left;SearchResponse;left;517.976098926738;1
16;m;NA;281.530118716182;3.6537520987913;VA;3;8;growlingdog;low;central;left;SearchResponse;left;835.293234558776;1
16;m;NA;288.086557629751;3.53676444431767;VA;3;9;cluckinghen;low;peripheral;right;SearchResponse;right;718.272000085562;1
16;m;NA;294.860064000124;3.75375723442994;VA;3;10;microwaveoven;low;central;left;SearchResponse;left;935.235160635784;1
16;m;NA;301.500045432243;3.62022716039792;VA;3;11;firealarm;low;peripheral;right;SearchResponse;right;802.089481381699;1
16;m;NA;307.939760197653;3.41988740745001;VA;3;12;microwaveoven;low;peripheral;left;SearchResponse;left;601.419851882383;1
16;m;NA;314.429663209943;3.47017402481288;VA;3;13;firealarm;low;central;left;SearchResponse;right;651.558320969343;0
16;m;NA;320.969490963034;3.52017303695902;VA;3;14;microwaveoven;high;peripheral;left;SearchResponse;left;701.146864099428;1
16;m;NA;327.375958913704;3.38675476540811;VA;3;15;cluckinghen;low;peripheral;left;SearchResponse;left;567.838814808056;1
16;m;NA;333.949168197578;3.55361777776852;VA;3;16;firealarm;low;central;right;SearchResponse;right;735.047901282087;1
16;m;NA;340.272255209973;3.30344888893887;VA;3;17;growlingdog;high;central;left;SearchResponse;left;483.945481479168;1
16;m;NA;346.778555259341;3.4866477039177;VA;3;18;cluckinghen;high;central;right;SearchResponse;right;668.353975284845;1
16;m;NA;353.11822775309;3.31991703691892;VA;3;19;microwaveoven;high;peripheral;right;SearchResponse;left;501.689679222181;0
16;m;NA;359.741622123634;3.60348088899627;VA;3;20;cluckinghen;low;central;right;SearchResponse;right;785.047703655437;1
16;m;NA;366.232176592806;3.47072000009939;VA;3;21;growlingdog;high;peripheral;right;SearchResponse;right;651.191308628768;1
16;m;NA;372.988151703728;3.73693629633635;VA;3;22;microwaveoven;low;central;right;SearchResponse;right;919.451259309426;1
16;m;NA;379.294512987835;3.2867026173044;VA;3;23;cluckinghen;high;central;left;SearchResponse;left;467.917432077229;1
16;m;NA;387.269170172978;4.95486064208671;VA;3;24;growlingdog;low;peripheral;right;SearchResponse;left;2136.59772835672;0
16;m;NA;393.707625481533;3.41878992598504;VA;3;25;cluckinghen;high;peripheral;right;SearchResponse;right;599.111506249756;1
16;m;NA;400.882808493916;4.1542644938454;VA;3;26;firealarm;low;peripheral;left;SearchResponse;left;1335.50854306668;1
16;m;NA;407.322604642017;3.4200963950716;VA;3;27;microwaveoven;high;central;right;SearchResponse;right;601.416296325624;1
16;m;NA;414.062660740921;3.72035437030718;VA;3;28;growlingdog;low;peripheral;left;SearchResponse;left;901.852839393541;1
16;m;NA;420.73583446932;3.65348306181841;VA;3;29;firealarm;high;central;right;SearchResponse;right;834.860246861354;1
16;m;NA;427.241198617499;3.48559249378741;VA;3;30;growlingdog;high;peripheral;left;SearchResponse;left;666.776888770983;1
16;m;NA;434.03280908661;3.76936256792396;VA;3;31;firealarm;high;central;left;SearchResponse;left;951.847901334986;1
16;m;NA;440.789302913705;3.73701056791469;VA;3;32;microwaveoven;low;peripheral;right;SearchResponse;right;918.831802438945;1
16;m;NA;447.412637629779;3.5937619751785;VA;4;1;firealarm;high;peripheral;left;SearchResponse;left;768.022123491392;1
16;m;NA;454.686442271806;4.25405985186808;VA;4;2;growlingdog;low;central;right;SearchResponse;right;1435.61758007854;1
16;m;NA;461.242977580288;3.53668227163143;VA;4;3;cluckinghen;high;peripheral;left;SearchResponse;left;717.93698775582;1
16;m;NA;467.650010074256;3.38714192598127;VA;4;4;growlingdog;high;central;right;SearchResponse;right;568.226765375584;1
16;m;NA;475.60742597538;4.93821116047911;VA;4;5;cluckinghen;low;central;left;SearchResponse;left;2118.52444452234;1
16;m;NA;482.331175901229;3.70402883947827;VA;4;6;firealarm;high;peripheral;right;SearchResponse;right;885.046518640593;1
16;m;NA;488.837315555662;3.48621037043631;VA;4;7;microwaveoven;high;central;left;SearchResponse;left;668.315259274095;1
16;m;NA;496.19478004938;4.33772602467798;VA;4;8;growlingdog;low;central;left;SearchResponse;left;1519.00009880774;1
16;m;NA;502.984993580263;3.77049007406458;VA;4;9;cluckinghen;low;peripheral;right;SearchResponse;right;951.979456702247;1
16;m;NA;510.442397629842;4.43774143210612;VA;4;10;microwaveoven;low;central;left;SearchResponse;left;1619.17037027888;1
16;m;NA;517.315788642038;3.85273481486365;VA;4;11;firealarm;low;peripheral;right;SearchResponse;right;1036.00869141519;1
16;m;NA;523.82237629639;3.48682350618765;VA;4;12;microwaveoven;low;peripheral;left;SearchResponse;left;668.225185247138;1
16;m;NA;530.345461333403;3.50290844449773;VA;4;13;firealarm;low;central;left;SearchResponse;left;685.304098762572;1
16;m;NA;536.718607802643;3.35338943218812;VA;4;14;microwaveoven;high;peripheral;left;SearchResponse;left;534.864197485149;1
16;m;NA;543.074917530874;3.33668464212678;VA;4;15;cluckinghen;low;peripheral;left;SearchResponse;left;517.98953092657;1
16;m;NA;549.44772859267;3.35321362968534;VA;4;16;firealarm;low;central;right;SearchResponse;left;534.702617209405;0
16;m;NA;555.737503604963;3.26986113586463;VA;4;17;growlingdog;high;central;left;SearchResponse;left;451.942320913076;1
16;m;NA;562.143993679201;3.38676424697042;VA;4;18;cluckinghen;high;central;right;SearchResponse;right;568.384394980967;1
16;m;NA;568.600457086461;3.43674153089523;VA;4;19;microwaveoven;high;peripheral;right;SearchResponse;right;617.879308527336;1
16;m;NA;575.25687980256;3.63670360506512;VA;4;20;cluckinghen;low;central;right;SearchResponse;right;819.029728416353;1
16;m;NA;581.763694617432;3.48690291354433;VA;4;21;growlingdog;high;peripheral;right;SearchResponse;right;668.397827306762;1
16;m;NA;588.586861037184;3.8034109629225;VA;4;22;microwaveoven;low;central;right;SearchResponse;right;985.112493857741;1
16;m;NA;594.960120494012;3.35340207396075;VA;4;23;cluckinghen;high;central;left;SearchResponse;left;534.148740582168;1
16;m;NA;601.833498864202;3.85358538269065;VA;4;24;growlingdog;low;peripheral;right;SearchResponse;right;1036.20898770168;1
16;m;NA;608.190090271644;3.33661945676431;VA;4;25;cluckinghen;high;peripheral;right;SearchResponse;right;518.211555667222;1
16;m;NA;614.663263210095;3.45291614811867;VA;4;26;firealarm;low;peripheral;left;SearchResponse;left;634.79387643747;1
16;m;NA;621.403007209999;3.72007348155603;VA;4;27;microwaveoven;high;central;right;SearchResponse;right;902.19456795603;1
16;m;NA;627.876265086466;3.45291259256192;VA;4;28;growlingdog;low;peripheral;left;SearchResponse;left;634.84918535687;1
16;m;NA;634.349549432285;3.45353362965398;VA;4;29;firealarm;high;central;right;SearchResponse;right;634.845234453678;1
16;m;NA;640.722586074146;3.35328987659886;VA;4;30;growlingdog;high;peripheral;left;SearchResponse;left;534.671407192945;1
16;m;NA;647.279157333542;3.53680750634521;VA;4;31;firealarm;high;central;left;SearchResponse;left;718.331259209663;1
16;m;NA;654.803384098923;4.504604839487;VA;4;32;microwaveoven;low;peripheral;right;SearchResponse;right;1686.57382717356;1
17;m;NA;60.3154332110425;3.16002100147307;VO;2;1;visual only;low;peripheral;left;SearchResponse;left;2136.40222672257;1
17;m;NA;65.4367567157606;2.10206739834393;VO;2;2;visual only;high;central;left;SearchResponse;left;1085.55894737947;1
17;m;NA;70.6919639277039;2.23565204371698;VO;2;3;visual only;low;central;right;SearchResponse;right;1218.52808634867;1
17;m;NA;75.4641187018715;1.75230647003627;VO;2;4;visual only;high;peripheral;left;SearchResponse;left;734.722660621628;1
17;m;NA;80.76871299505;2.28553966837353;VO;2;5;visual only;low;central;left;SearchResponse;left;1268.74716792372;1
17;m;NA;85.4564398840303;1.66808164663962;VO;2;6;visual only;high;central;right;SearchResponse;right;651.673936459702;1
17;m;NA;90.1778774036211;1.70144185735262;VO;2;7;visual only;high;peripheral;right;SearchResponse;right;684.618937142659;1
17;m;NA;94.9496145973972;1.75177234635339;VO;2;8;visual only;high;central;left;SearchResponse;left;734.785475477111;1
17;m;NA;99.6877450618485;1.7183856665506;VO;2;9;visual only;low;central;right;SearchResponse;right;701.668227819027;1
17;m;NA;104.558637257753;1.85130107705481;VO;2;10;visual only;high;peripheral;left;SearchResponse;left;833.634699723916;1
17;m;NA;109.214005812944;1.63469220136176;VO;2;11;visual only;high;central;right;SearchResponse;right;617.361231561517;1
17;m;NA;113.835195194173;1.60162117594155;VO;2;12;visual only;high;peripheral;left;SearchResponse;left;584.676181577379;1
17;m;NA;118.490094810899;1.6353436584177;VO;2;13;visual only;high;peripheral;right;SearchResponse;right;618.310960329836;1
17;m;NA;123.142816451495;1.63519234969863;VO;2;14;visual only;high;central;left;SearchResponse;left;617.20281172893;1
17;m;NA;128.531931074365;2.36994543010951;VO;2;15;visual only;low;peripheral;right;SearchResponse;right;1352.73613934987;1
17;m;NA;133.271032205841;1.71816206150106;VO;2;16;visual only;high;central;left;SearchResponse;left;701.183091849089;1
17;m;NA;138.259380250616;1.96837016034988;VO;2;17;visual only;low;central;left;SearchResponse;left;951.629808056168;1
17;m;NA;142.981003054243;1.70172235131031;VO;2;18;visual only;low;central;right;SearchResponse;right;684.769060637336;1
17;m;NA;148.169340511347;2.16868905432057;VO;2;19;visual only;low;peripheral;left;SearchResponse;left;1151.80094886455;1
17;m;NA;152.957626847463;1.76847003199509;VO;2;20;visual only;high;peripheral;right;SearchResponse;right;751.2394078949;1
17;m;NA;157.712325022148;1.73503831506241;VO;2;21;visual only;high;peripheral;right;SearchResponse;right;718.071987386793;1
17;m;NA;162.850115496345;2.11806029354921;VO;2;22;visual only;low;central;right;SearchResponse;right;1100.4207803926;1
17;m;NA;167.788111323694;1.91755769582232;VO;2;23;visual only;low;peripheral;left;SearchResponse;left;899.088947800919;1
17;m;NA;172.593878753134;1.78500416196766;VO;2;24;visual only;low;central;left;SearchResponse;left;767.126426537288;1
17;m;NA;177.215117517102;1.60146947219619;VO;2;25;visual only;high;peripheral;left;SearchResponse;left;584.471144480631;1
17;m;NA;183.371371998568;3.1364259304537;VO;2;26;visual only;low;peripheral;right;SearchResponse;right;2119.53742994228;1
17;m;NA;188.426404514146;2.03518381636241;VO;2;27;visual only;low;peripheral;right;SearchResponse;right;1018.59595795395;1
17;m;NA;193.131733780436;1.68563306098804;VO;2;28;visual only;high;central;right;SearchResponse;right;667.668016831158;1
17;m;NA;198.586567342863;2.4352171595965;VO;2;29;visual only;low;peripheral;left;SearchResponse;left;1418.82327658823;1
17;m;NA;203.174541896122;1.56831350846915;VO;2;30;visual only;high;central;right;SearchResponse;right;551.188365905546;1
17;m;NA;208.813429259637;2.61923303475487;VO;2;31;visual only;low;peripheral;right;SearchResponse;right;1602.21574406023;1
17;m;NA;213.651669195737;1.81874995309045;VO;2;32;visual only;low;central;left;SearchResponse;left;801.837748877006;1
17;m;NA;220.808829554124;4.12781595173874;VA;3;1;microwaveoven;low;peripheral;left;SearchResponse;left;1301.94658841356;1
17;m;NA;227.481994462025;3.65348015940981;VA;3;2;growlingdog;low;central;right;SearchResponse;right;833.640230586752;1
17;m;NA;233.988476044848;3.4865759946988;VA;3;3;microwaveoven;high;peripheral;right;SearchResponse;right;667.851325590163;1
17;m;NA;240.644368847163;3.63599432533374;VA;3;4;firealarm;high;peripheral;left;SearchResponse;left;816.207334806677;1
17;m;NA;247.018190229428;3.35310354689136;VA;3;5;growlingdog;high;central;right;SearchResponse;right;534.593791438965;1
17;m;NA;253.492629527958;3.45457637711661;VA;3;6;firealarm;high;peripheral;right;SearchResponse;right;634.758571744896;1
17;m;NA;259.847640828695;3.33633040447603;VA;3;7;growlingdog;high;central;left;SearchResponse;left;517.649587243795;1
17;m;NA;266.872551060776;4.00495012541069;VA;3;8;microwaveoven;low;peripheral;right;SearchResponse;right;1185.29429542832;1
17;m;NA;273.261154868611;3.36985101032769;VA;3;9;growlingdog;high;peripheral;left;SearchResponse;left;551.421452400973;1
17;m;NA;279.734421623492;3.4533726235677;VA;3;10;cluckinghen;high;peripheral;right;SearchResponse;right;634.600546996808;1
17;m;NA;286.223478211759;3.46933233356685;VA;3;11;microwaveoven;high;peripheral;left;SearchResponse;left;650.521540956106;1
17;m;NA;293.097031544516;3.85350907794782;VA;3;12;cluckinghen;low;peripheral;left;SearchResponse;left;1034.63784084306;1
17;m;NA;299.587570404983;3.47010586474789;VA;3;13;firealarm;low;peripheral;left;SearchResponse;left;651.484306756174;1
17;m;NA;305.960508033779;3.35321771979216;VA;3;14;cluckinghen;high;central;left;SearchResponse;left;534.438927192241;1
17;m;NA;312.516091463156;3.53559527333709;VA;3;15;firealarm;low;central;right;SearchResponse;right;717.268431530101;1
17;m;NA;318.856914906442;3.32000052148942;VA;3;16;microwaveoven;high;central;right;SearchResponse;right;501.283358520595;1
17;m;NA;325.146706230793;3.27003269927809;VA;3;17;firealarm;high;central;right;SearchResponse;right;450.646696524927;1
17;m;NA;331.419590091711;3.25336108772899;VA;3;18;growlingdog;high;peripheral;right;SearchResponse;right;434.648270485923;1
17;m;NA;338.710341021389;4.27117245280533;VA;3;19;firealarm;low;peripheral;right;SearchResponse;right;1452.3336107959;1
17;m;NA;345.415730732144;3.68589498702204;VA;3;20;growlingdog;low;central;left;SearchResponse;left;867.134762316709;1
17;m;NA;352.056732861936;3.62027283763746;VA;3;21;cluckinghen;low;peripheral;right;SearchResponse;right;801.848020491889;1
17;m;NA;358.396427613421;3.32000763260294;VA;3;22;firealarm;high;central;left;SearchResponse;left;502.004346461035;1
17;m;NA;364.986180340231;3.56994550913805;VA;3;23;microwaveoven;low;central;left;SearchResponse;left;751.444840076147;1
17;m;NA;371.409504161798;3.40344114703475;VA;3;24;cluckinghen;high;central;right;SearchResponse;right;584.773366805166;1
17;m;NA;377.998410270986;3.56922965697595;VA;3;25;microwaveoven;low;central;right;SearchResponse;right;749.286221951479;1
17;m;NA;384.639390277298;3.62024557837867;VA;3;26;firealarm;low;central;left;SearchResponse;left;801.254242454888;1
17;m;NA;391.162606681522;3.50348385324469;VA;3;27;cluckinghen;low;central;left;SearchResponse;left;683.916517096804;1
17;m;NA;397.819314891589;3.6370799553988;VA;3;28;growlingdog;low;peripheral;left;SearchResponse;left;818.361212208401;1
17;m;NA;404.84294591326;4.00388266818481;VA;3;29;cluckinghen;low;central;right;SearchResponse;right;1184.43266543909;1
17;m;NA;412.083463144081;4.22085342058563;VA;3;30;growlingdog;low;peripheral;right;SearchResponse;right;1401.74514637329;1
17;m;NA;418.439822396002;3.33672151571955;VA;3;31;cluckinghen;high;peripheral;left;SearchResponse;left;517.635364987655;1
17;m;NA;424.779576011701;3.31952763238223;VA;3;32;microwaveoven;high;central;left;SearchResponse;left;501.193284435431;1
17;m;NA;431.386063954997;3.57651617837837;VA;4;1;microwaveoven;low;peripheral;left;SearchResponse;left;751.645926589845;1
17;m;NA;438.026074874506;3.62008123262785;VA;4;2;growlingdog;low;central;right;SearchResponse;right;800.7995262451;1
17;m;NA;444.565369112242;3.51955299536348;VA;4;3;microwaveoven;high;peripheral;right;SearchResponse;right;701.550499390578;1
17;m;NA;451.005780940555;3.42010446224594;VA;4;4;firealarm;high;peripheral;left;SearchResponse;left;601.385324000148;1
17;m;NA;457.395830279856;3.37018878821982;VA;4;5;growlingdog;high;central;right;SearchResponse;right;551.641501864651;1
17;m;NA;463.851970311895;3.4366840243747;VA;4;6;firealarm;high;peripheral;right;SearchResponse;right;618.694960488938;1
17;m;NA;470.141457438614;3.26978578558192;VA;4;7;growlingdog;high;central;left;SearchResponse;left;451.062696694862;1
17;m;NA;477.081908970635;3.91983088190318;VA;4;8;microwaveoven;low;peripheral;right;SearchResponse;right;1101.89752173028;1
17;m;NA;483.438031975529;3.33645642924239;VA;4;9;growlingdog;high;peripheral;left;SearchResponse;left;518.635266635101;1
17;m;NA;489.744351503963;3.28641394031001;VA;4;10;cluckinghen;high;peripheral;right;SearchResponse;right;467.479493323481;1
17;m;NA;496.134118373971;3.36987194861285;VA;4;11;microwaveoven;high;peripheral;left;SearchResponse;left;550.901155918837;1
17;m;NA;502.940982890286;3.78688505160972;VA;4;12;cluckinghen;low;peripheral;left;SearchResponse;left;967.990505858324;1
17;m;NA;509.397490329895;3.43667967867805;VA;4;13;firealarm;low;peripheral;left;SearchResponse;left;617.994120693766;1
17;m;NA;515.71995445728;3.30282560113119;VA;4;14;cluckinghen;high;central;left;SearchResponse;left;482.592190644937;1
17;m;NA;522.544064214948;3.80319281114498;VA;4;15;firealarm;low;central;right;SearchResponse;right;985.15475957538;1
17;m;NA;528.866712836229;3.30301207033335;VA;4;16;microwaveoven;high;central;right;SearchResponse;right;484.045228280593;1
17;m;NA;535.123230468453;3.23653579715756;VA;4;17;firealarm;high;central;right;SearchResponse;right;417.8917206591;1
17;m;NA;541.379502372147;3.23653856257442;VA;4;18;growlingdog;high;peripheral;right;SearchResponse;right;416.697843640577;1
17;m;NA;547.952553857816;3.55334935439168;VA;4;19;firealarm;low;peripheral;right;SearchResponse;right;734.553574147867;1
17;m;NA;554.425872365799;3.45346467295894;VA;4;20;growlingdog;low;central;left;SearchResponse;left;634.07511470723;1
17;m;NA;562.050598736038;4.60488833772251;VA;4;21;cluckinghen;low;peripheral;right;SearchResponse;right;1785.69433509256;1
17;m;NA;568.372930517711;3.30305947776651;VA;4;22;firealarm;high;central;left;SearchResponse;left;484.893031069078;1
17;m;NA;574.862970810063;3.47005213631201;VA;4;23;microwaveoven;low;central;left;SearchResponse;left;651.382775860839;1
17;m;NA;581.186321456335;3.30364219404873;VA;4;24;cluckinghen;high;central;right;SearchResponse;right;484.086709766416;1
17;m;NA;587.659145741898;3.45348166063195;VA;4;25;microwaveoven;low;central;right;SearchResponse;right;634.211411059368;1
17;m;NA;594.08218472384;3.40334554208675;VA;4;26;firealarm;low;central;left;SearchResponse;left;583.497711981181;1
17;m;NA;600.488567501656;3.3866261280491;VA;4;27;cluckinghen;low;central;left;SearchResponse;left;567.99706388847;1
17;m;NA;607.178564416245;3.67027858580695;VA;4;28;growlingdog;low;peripheral;left;SearchResponse;left;851.674805599032;1
17;m;NA;613.885370423872;3.68702920968644;VA;4;29;cluckinghen;low;central;right;SearchResponse;right;868.195898539852;1
17;m;NA;620.625425234757;3.72029025986558;VA;4;30;growlingdog;low;peripheral;right;SearchResponse;right;901.83383776457;1
17;m;NA;627.048527426581;3.40334238155629;VA;4;31;cluckinghen;high;peripheral;left;SearchResponse;left;584.550946980016;1
17;m;NA;633.388173980522;3.31991992887924;VA;4;32;microwaveoven;high;central;left;SearchResponse;left;501.978272397537;1
18;m;NA;66.7441126019694;3.5751655108761;VA;2;1;microwaveoven;high;central;left;SearchResponse;left;752.241379348561;1
18;m;NA;73.3341071263421;3.57016206183471;VA;2;2;firealarm;high;central;left;SearchResponse;left;751.415306469426;1
18;m;NA;79.7404251017142;3.38666131487116;VA;2;3;growlingdog;high;central;left;SearchResponse;left;567.354757804424;1
18;m;NA;86.263676422881;3.50347772287205;VA;2;4;firealarm;high;peripheral;right;SearchResponse;right;684.65590570122;1
18;m;NA;94.571809861809;5.28846018598415;VA;2;5;growlingdog;low;central;right;SearchResponse;right;2468.37417338975;1
18;m;NA;101.178618186852;3.58700391184539;VA;2;6;firealarm;high;peripheral;left;SearchResponse;left;767.457157606259;1
18;m;NA;109.336875319481;5.13862180546857;VA;2;7;growlingdog;low;peripheral;right;SearchResponse;right;2320.0449263677;1
18;m;NA;117.094103160081;4.73623863910325;VA;2;8;firealarm;low;central;right;SearchResponse;right;1918.87578251772;1
18;m;NA;123.749157137237;3.6367606727872;VA;2;9;microwaveoven;high;peripheral;left;SearchResponse;left;818.012732081115;1
18;m;NA;130.37447328493;3.60369445336983;VA;2;10;growlingdog;high;central;right;SearchResponse;right;784.756488166749;1
18;m;NA;137.798400318716;4.40417160815559;VA;2;11;firealarm;low;central;left;SearchResponse;left;1585.70653107017;1
18;m;NA;144.505180436419;3.68682360602543;VA;2;12;growlingdog;high;peripheral;right;SearchResponse;right;868.203270016238;1
18;m;NA;151.729022847954;4.20399572700262;VA;2;13;microwaveoven;low;peripheral;right;SearchResponse;right;1385.16758871265;1
18;m;NA;158.268944562646;3.52013586927205;VA;2;14;cluckinghen;high;central;left;SearchResponse;left;701.185657409951;1
18;m;NA;164.725322705694;3.43671555677429;VA;2;15;microwaveoven;high;central;right;SearchResponse;right;618.036356754601;1
18;m;NA;172.182697982993;4.43757520965301;VA;2;16;cluckinghen;low;peripheral;right;SearchResponse;right;1619.2906757351;1
18;m;NA;179.039662554627;3.83720519556664;VA;2;17;firealarm;low;peripheral;left;SearchResponse;left;1018.17478612065;1
18;m;NA;185.863153994083;3.80384544585831;VA;2;18;cluckinghen;low;peripheral;left;SearchResponse;left;985.016122460365;1
18;m;NA;193.403929040767;4.52110021351837;VA;2;19;microwaveoven;low;peripheral;left;SearchResponse;left;1702.53874175251;1
18;m;NA;200.010290946811;3.5865491963923;VA;2;20;firealarm;high;central;right;SearchResponse;right;768.455081852153;1
18;m;NA;207.335102285258;4.30492830812;VA;2;21;growlingdog;low;central;left;SearchResponse;left;1485.48347991891;1
18;m;NA;213.924128910061;3.56981085264124;VA;2;22;cluckinghen;high;central;right;SearchResponse;right;752.578366314992;1
18;m;NA;221.648880752502;4.70469538006;VA;2;23;microwaveoven;low;central;left;SearchResponse;left;1885.00442868099;1
18;m;NA;228.205319576897;3.53673949767835;VA;2;24;growlingdog;high;peripheral;left;SearchResponse;left;717.820100253448;1
18;m;NA;235.162306904094;3.93675980367698;VA;2;25;firealarm;low;peripheral;right;SearchResponse;right;1118.41363995336;1
18;m;NA;241.769021599554;3.58710346720181;VA;2;26;cluckinghen;high;peripheral;right;SearchResponse;right;767.169158207253;1
18;m;NA;248.792528525461;4.00351406866685;VA;2;27;growlingdog;low;peripheral;left;SearchResponse;left;1185.21096673794;1
18;m;NA;255.882983296178;4.0707273944281;VA;2;28;cluckinghen;low;central;left;SearchResponse;left;1251.86804658733;1
18;m;NA;262.590045487508;3.68730834615417;VA;2;29;microwaveoven;low;central;right;SearchResponse;right;867.47833294794;1
18;m;NA;269.262943189591;3.65347847365774;VA;2;30;cluckinghen;low;central;right;SearchResponse;right;835.445593344048;1
18;m;NA;275.952990099089;3.67034718766809;VA;2;31;microwaveoven;high;peripheral;right;SearchResponse;right;851.575543172657;1
18;m;NA;282.491803667275;3.51905656256713;VA;2;32;cluckinghen;high;peripheral;left;SearchResponse;left;700.162844266742;1
18;m;NA;288.966075707925;3.44269520160742;VA;3;1;microwaveoven;high;central;left;SearchResponse;left;618.478430202231;1
18;m;NA;295.355762005784;3.36997156357393;VA;3;2;firealarm;high;central;left;SearchResponse;left;551.007919246331;1
18;m;NA;301.712049047695;3.33655373984948;VA;3;3;growlingdog;high;central;left;SearchResponse;left;518.007280072197;1
18;m;NA;308.235359628219;3.50363337714225;VA;3;4;firealarm;high;peripheral;right;SearchResponse;right;684.10084489733;1
18;m;NA;315.526012798538;4.2706377946306;VA;3;5;growlingdog;low;central;right;SearchResponse;right;1452.16165599413;1
18;m;NA;322.266173604177;3.71956113469787;VA;3;6;firealarm;high;peripheral;left;SearchResponse;left;901.460698805749;1
18;m;NA;330.90785476286;5.62132287002169;VA;3;7;growlingdog;low;peripheral;right;SearchResponse;right;2803.25443437323;1
18;m;NA;338.015098840464;4.08745349128731;VA;3;8;firealarm;low;central;right;SearchResponse;right;1268.53764965199;1
18;m;NA;344.538198853377;3.5030874023214;VA;3;9;microwaveoven;high;peripheral;left;SearchResponse;left;684.360794955865;1
18;m;NA;351.02804301749;3.47017209650949;VA;3;10;growlingdog;high;central;right;SearchResponse;right;651.319859549403;1
18;m;NA;357.801341548562;3.75358419190161;VA;3;11;firealarm;low;central;left;SearchResponse;left;934.762769844383;1
18;m;NA;364.207872856874;3.38653252483346;VA;3;12;growlingdog;high;peripheral;right;SearchResponse;right;567.84068280831;1
18;m;NA;371.415569516132;4.18800207320601;VA;3;13;microwaveoven;low;peripheral;right;SearchResponse;right;1368.73423215002;1
18;m;NA;377.787972680759;3.35307677532546;VA;3;14;cluckinghen;high;central;left;SearchResponse;left;534.402711084113;1
18;m;NA;384.177758533973;3.36991546466015;VA;3;15;microwaveoven;high;central;right;SearchResponse;right;551.164363510907;1
18;m;NA;391.035454363795;3.8380624782294;VA;3;16;cluckinghen;low;peripheral;right;SearchResponse;right;1018.38100794703;1
18;m;NA;397.591136646224;3.53667391743511;VA;3;17;firealarm;low;peripheral;left;SearchResponse;left;718.576247105375;1
18;m;NA;404.347916882485;3.73712515621446;VA;3;18;cluckinghen;low;peripheral;left;SearchResponse;left;917.316476348788;1
18;m;NA;411.338604897028;3.97095392248593;VA;3;19;microwaveoven;low;peripheral;left;SearchResponse;left;1151.75956254825;1
18;m;NA;417.861280614277;3.50336987129413;VA;3;20;firealarm;high;central;right;SearchResponse;right;684.015511767939;1
18;m;NA;424.701449558372;3.82032383955084;VA;3;21;growlingdog;low;central;left;SearchResponse;left;999.838815070689;1
18;m;NA;431.207960560219;3.48666668776423;VA;3;22;cluckinghen;high;central;right;SearchResponse;right;667.21435287036;1
18;m;NA;437.948183390545;3.72039510845207;VA;3;23;microwaveoven;low;central;left;SearchResponse;left;901.468995260075;1
18;m;NA;444.404626718722;3.43675861833617;VA;3;24;growlingdog;high;peripheral;left;SearchResponse;left;617.953393841162;1
18;m;NA;451.178016508929;3.75281895836815;VA;3;25;firealarm;low;peripheral;right;SearchResponse;right;934.747757622972;1
18;m;NA;457.73462283914;3.53694453416392;VA;3;26;cluckinghen;high;peripheral;right;SearchResponse;right;717.946914723143;1
18;m;NA;464.691364438506;3.93619802664034;VA;3;27;growlingdog;low;peripheral;left;SearchResponse;left;1118.43299795873;1
18;m;NA;471.314849082846;3.60362571291625;VA;3;28;cluckinghen;low;central;left;SearchResponse;left;784.764784621075;1
18;m;NA;477.955154243857;3.6205268218182;VA;3;29;microwaveoven;low;central;right;SearchResponse;right;801.470733480528;1
18;m;NA;484.4278274721;3.45297153131105;VA;3;30;cluckinghen;low;central;right;SearchResponse;right;634.550306014717;1
18;m;NA;491.084705841495;3.63716047466733;VA;3;31;microwaveoven;high;peripheral;right;SearchResponse;right;818.249768577516;1
18;m;NA;497.540918453829;3.43662706320174;VA;3;32;cluckinghen;high;peripheral;left;SearchResponse;left;617.954579181969;1
18;m;NA;504.614798831055;4.04429899179377;VO;4;1;visual only;low;central;left;SearchResponse;left;3020.22910374217;1
18;m;NA;510.053439915646;2.41897099232301;VO;4;2;visual only;low;central;right;SearchResponse;right;1401.62859996781;1
18;m;NA;515.125220937887;2.05204732529819;VO;4;3;visual only;high;central;left;SearchResponse;left;1035.09920393117;1
